sub,role,trial,unfairness,RP,RP_RT,EP_X1,EP_Y1,EP_RT,feedback_X1,feedback_Y1,feedback_RT,choice,choice_RT,reward,RPE,EPE_X1,EPE_Y1,RP_scale,EP_X1_scale,EP_Y1_scale,feedback_X1_scale,feedback_Y1_scale,reward_scale,unfairness_norm,EPE_X1_scale,EPE_Y1_scale,RPE_scale
1,self,1,50,0.1,3.918,70,7,5.386,167,64,8.306,0,3.5,0.5,0.4,97,57,0.317640041634718,0.600031767255751,0.0827921901321196,1.13300666129612,0.59635441569948,1.61154469083039,-1.56660048977515,0.555411210618355,0.533737548187206,1.99442205813274
1,self,2,80,0.15,3.617,36,34,2.465,-32,-57,5.313,0,5.792,0.2,0.05,-68,-91,0.476460062452077,0.308587766017243,0.402133494927438,-0.217103072823209,-0.531128151482349,0.644617876332157,0.522200163258382,-0.389360436309775,-0.852107313772557,0.249302757266593
1,self,3,95,0.25,3.876,49,65,2.157,-202,-225,5.476,0,5.581,0.05,-0.2,-251,-290,0.794100104086795,0.420022237079025,0.768784622655396,-1.37046314719651,-2.09655849269348,0.161154469083039,1.56660048977515,-1.43719808108461,-2.71550682411035,-0.997211029066371
1,self,4,60,0.25,2.821,39,52,21.658,43,68,3.547,0,1.913,0.4,0.15,4,16,0.794100104086795,0.334303413185347,0.615027698124317,0.29173225410618697,0.633626566680698,1.28923575266431,-0.870333605430637,0.0229035550770456,0.149821066157812,0.747908271799778
1,self,5,75,0.2,2.001,36,154,3.912,8,9,5.861,0,2.293,0.25,0.05,-28,-145,0.635280083269436,0.308587766017243,1.8214281829066299,0.0542757682058022,0.0838623397077394,0.805772345415196,0.174066721086127,-0.160324885539319,-1.35775341205517,0.249302757266593
1,self,6,90,0.2,1.808,33,48,2.1,-44,-117,2.565,0,2.008,0.1,-0.1,-77,-165,0.635280083269436,0.28287211884914,0.567717875191677,-0.298516725131912,-1.09021041620061,0.322308938166079,1.21846704760289,-0.440893435233127,-1.54502974475244,-0.498605514533185
1,self,7,75,0.1,2.424,34,88,2.194,-98,-108,2.613,0,2.159,0.25,0.15,-132,-196,0.317640041634718,0.291444001238507,1.04081610451808,-0.664878160521077,-1.00634807649287,0.805772345415196,0.174066721086127,-0.755817317542504,-1.8353080604332,0.747908271799778
1,self,8,60,0.1,3.361,89,84,2.063,19,21,3.248,0,2.055,0.4,0.3,-70,-63,0.317640041634718,0.76289753265374,0.993506281585435,0.12890494948878,0.195678792651392,1.28923575266431,-0.870333605430637,-0.400812213848298,-0.589920447996386,1.49581654359956
1,self,9,95,0.25,1.553,32,41,2.374,-235,-240,3.087,0,2.256,0.05,-0.2,-267,-281,0.794100104086795,0.274300236459772,0.484925685059558,-1.59435069104544,-2.23632905887305,0.161154469083039,1.56660048977515,-1.52881230139279,-2.63123247439658,-0.997211029066371
1,self,10,70,0.35,8.783,55,75,2.208,19,44,2.836,0,2.192,0.3,-0.05,-36,-31,1.11174014572151,0.471453531415233,0.887059179986996,0.12890494948878,0.409993660793393,0.966926814498236,-0.174066721086127,-0.20613199569341,-0.290278315680761,-0.249302757266593
1,self,11,85,0.1,6.163,107,15,2.787,-117,-142,2.703,0,1.875,0.15,0.05,-224,-157,0.317640041634718,0.917191415662362,0.177411835997399,-0.793783110009858,-1.32316135983322,0.483463407249118,0.870333605430637,-1.28259908431455,-1.47011921167353,0.249302757266593
1,self,12,65,0.4,2.044,57,49,1.886,10,18,3.208,0,2.078,0.35,-0.05,-47,-31,1.27056016653887,0.488597296193968,0.579545330924837,0.0678447102572528,0.167724679415479,1.12808128358128,-0.522200163258382,-0.269116772155286,-0.290278315680761,-0.249302757266593
1,self,13,85,0.05,22.98,-9,-14,3.878,-13,-10,2.51,0,1.894,0.15,0.1,-4,4,0.158820020817359,-0.0771469415043108,-0.165584380264239,-0.0881981233344286,-0.0931803774530438,0.483463407249118,0.870333605430637,-0.0229035550770456,0.037455266539453,0.498605514533185
1,self,14,55,0.2,1.533,80,4,2.469,114,134,2.73,0,1.865,0.45,0.25,34,130,0.635280083269436,0.685750591149429,0.0473098229326398,0.773429696932682,1.24861705787079,1.45039022174735,-1.21846704760289,0.194680218154887,1.21729616253222,1.24651378633296
1,self,15,90,0.1,2.591,49,67,1.788,-88,-142,2.204,0,1.899,0.1,0,-137,-209,0.317640041634718,0.420022237079025,0.792439534121716,-0.597033450263824,-1.32316135983322,0.322308938166079,1.21846704760289,-0.784446761388811,-1.95703767668642,0
1,self,16,70,0.05,3.918,2,27,2.76,21,31,2.881,0,3.419,0.3,0.25,19,4,0.158820020817359,0.0171437647787357,0.319341304795318,0.142473891540231,0.288859170104436,0.966926814498236,-0.174066721086127,0.108791886615966,0.037455266539453,1.24651378633296
1,self,17,80,0.2,1.802,216,142,1.925,-15,-27,4.432,0,1.777,0.2,0,-231,-169,0.635280083269436,1.85152659610346,1.67949871410871,-0.101767065385879,-0.251587019123218,0.644617876332157,0.522200163258382,-1.32268030569938,-1.58248501129189,0
1,self,18,50,0.05,3.493,128,40,2.43,232,237,5.942,0,2.184,0.5,0.45,104,197,0.158820020817359,1.09720094583909,0.473098229326398,1.57399727796826,2.20837494563714,1.61154469083039,-1.56660048977515,0.595492432003185,1.84467187706806,2.24372481539933
1,self,19,65,0.2,1.7,146,11,2.532,7,13,3.372,0,2.063,0.35,0.15,-139,2,0.635280083269436,1.25149482884771,0.130102013064759,0.0474912971800769,0.121134490688957,1.12808128358128,-0.522200163258382,-0.795898538927334,0.0187276332697265,0.747908271799778
1,self,20,55,0.2,5.37,191,8,2.493,241,227,3.768,0,4.275,0.45,0.25,50,219,0.635280083269436,1.63722953636926,0.0946196458652795,1.63505751719979,2.11519456818409,1.45039022174735,-1.21846704760289,0.28629443846307,2.05067584303505,1.24651378633296
2,self,1,60,0.5,3.632,17,2,4.963,161,147,5.553,0,3.132,0.4,-0.1,144,145,1.58820020817359,0.145722000619254,0.0236549114663199,1.09229983514177,1.36975154855974,1.28923575266431,-0.870333605430637,0.824527982773641,1.35775341205517,-0.498605514533185
2,self,2,55,0.3,4.171,99,-7,2.958,245,244,4.307,0,1.899,0.45,0.15,146,251,0.952920124904154,0.848616356547419,-0.0827921901321196,1.66219540130269,2.27360120985427,1.45039022174735,-1.21846704760289,0.835979760312163,2.35031797535068,0.747908271799778
2,self,3,85,0.5,2.79,206,184,2.881,-180,-202,2.897,1,2.299,0.15,-0.35,-386,-386,1.58820020817359,1.76580777220978,2.17625185490143,-1.22120478463055,-1.88224362455148,0.483463407249118,0.870333605430637,-2.2101930649349,-3.61443322105722,-1.74511930086615
2,self,4,95,0.45,2.563,131,77,3.331,-245,244,9.856,1,2.427,0.05,-0.4,-376,167,1.42938018735623,1.12291659300719,0.910714091453316,-1.66219540130269,2.27360120985427,0.161154469083039,1.56660048977515,-2.15293417724228,1.56375737802216,-1.99442205813274
2,self,5,65,0.45,2.293,3,4,4.688,-3,0,4.357,0,2.718,0.35,-0.1,-6,-4,1.42938018735623,0.0257156471681036,0.0473098229326398,-0.0203534130771758,0,1.12808128358128,-0.522200163258382,-0.0343553326155684,-0.037455266539453,-0.498605514533185
2,self,6,55,0.45,34.604,21,3,15.269,191,211,5.534,0,2.91,0.45,0,170,208,1.42938018735623,0.180009530176725,0.0354823671994798,1.29583396591353,1.96610596425922,1.45039022174735,-1.21846704760289,0.973401090774437,1.94767386005156,0
2,self,7,80,0.35,2.359,178,192,2.79,-63,-69,2.935,1,1.816,0.2,-0.15,-241,-261,1.11174014572151,1.52579506530748,2.27087150076671,-0.427421674620693,-0.642944604426002,0.644617876332157,0.522200163258382,-1.379939193392,-2.44395614169931,-0.747908271799778
2,self,8,50,0.25,2.112,62,57,2.448,235,238,3.075,0,2.076,0.5,0.25,173,181,0.794100104086795,0.531456708140808,0.674164976790117,1.59435069104544,2.21769298338244,1.61154469083039,-1.56660048977515,0.990578757082221,1.69485081091025,1.24651378633296
2,self,9,90,0,2.484,3,-3,2.456,-152,-118,1.793,1,1.59,0.1,0.1,-155,-115,0,0.0257156471681036,-0.0354823671994798,-1.03123959591024,-1.09952845394592,0.322308938166079,1.21846704760289,-0.887512759235516,-1.07683891300928,0.498605514533185
2,self,10,90,0.35,16.956,120,81,2.234,-184,-124,2.498,0,1.351,0.1,-0.25,-304,-205,1.11174014572151,1.02862588672414,0.958023914385955,-1.24834266873345,-1.15543668041774,0.322308938166079,1.21846704760289,-1.74067018585546,-1.91958241014697,-1.24651378633296
2,self,11,75,0.45,2.387,145,91,2.695,-125,-114,3.196,0,1.95,0.25,-0.2,-270,-205,1.42938018735623,1.24292294645834,1.07629847171755,-0.84805887821566,-1.0622563029647,0.805772345415196,0.174066721086127,-1.54598996770058,-1.91958241014697,-0.997211029066371
2,self,12,95,0.35,1.983,87,78,3.232,-221,-226,3.367,1,5.01,0.05,-0.3,-308,-304,1.11174014572151,0.745753767875004,0.922541547186476,-1.49936809668529,-2.10587653043879,0.161154469083039,1.56660048977515,-1.76357374093251,-2.84660025699843,-1.49581654359956
2,self,13,85,0.4,2.179,123,85,2.582,-217,-171,1.71,1,1.866,0.15,-0.25,-340,-256,1.27056016653887,1.05434153389225,1.0053337373186,-1.47223021258239,-1.59338445444705,0.483463407249118,0.870333605430637,-1.94680218154887,-2.39713705852499,-1.24651378633296
2,self,14,70,0.35,3.439,59,59,1.858,-79,-99,1.51,0,1.841,0.3,-0.05,-138,-158,1.11174014572151,0.505741060972704,0.697819888256437,-0.535973211032297,-0.922485736785133,0.966926814498236,-0.174066721086127,-0.790172650158072,-1.4794830283084,-0.249302757266593
2,self,15,60,0,1.745,118,97,1.934,-102,-125,2.03,0,2.653,0.4,0.4,-220,-222,0,1.01148212194541,1.14726320611651,-0.692016044623978,-1.16475471816305,1.28923575266431,-0.870333605430637,-1.25969552923751,-2.07876729293964,1.99442205813274
2,self,16,65,0.35,1.885,61,76,1.854,24,7,10.585,0,2.881,0.35,0,-37,-69,1.11174014572151,0.52288482575144,0.898886635720156,0.162827304617407,0.0652262642171306,1.12808128358128,-0.522200163258382,-0.211857884462672,-0.646103347805565,0
2,self,17,70,0.3,3.716,45,34,1.618,73,106,1.42,0,1.619,0.3,0,28,72,0.952920124904154,0.385734707521554,0.402133494927438,0.495266384877945,0.987712001002264,0.966926814498236,-0.174066721086127,0.160324885539319,0.674194797710155,0
2,self,18,75,0.25,1.518,110,93,16.171,-170,-174,2.483,1,2.267,0.25,0,-280,-267,0.794100104086795,0.942907062830465,1.09995338318387,-1.1533600743733,-1.62133856768296,0.805772345415196,0.174066721086127,-1.60324885539319,-2.50013904150849,0
2,self,19,50,0.25,1.668,68,53,1.826,236,241,2.343,0,2.097,0.5,0.25,168,188,0.794100104086795,0.582888002477015,0.626855153857477,1.60113516207117,2.24564709661835,1.61154469083039,-1.56660048977515,0.961949313235914,1.76039752735429,1.24651378633296
2,self,20,80,0.45,5.403,108,56,1.32,-151,-82,1.635,0,1.983,0.2,-0.25,-259,-138,1.42938018735623,0.92576329805173,0.662337521056957,-1.02445512488452,-0.764079095114959,0.644617876332157,0.522200163258382,-1.4830051912387,-1.29220669561113,-1.24651378633296
3,self,1,90,0.1,4.657,-131,-68,5.167,-211,-51,9.381,0,3.101,0.1,0,-80,17,0.317640041634718,-1.12291659300719,-0.804266989854876,-1.43152338642803,-0.475219925010523,0.322308938166079,1.21846704760289,-0.458071101540911,0.159184882792675,0
3,self,2,70,0.1,8.125,-195,-81,3.717,-84,-31,4.881,0,3.582,0.3,0.2,111,50,0.317640041634718,-1.67151706592673,-0.958023914385955,-0.569895566160923,-0.288859170104436,0.966926814498236,-0.174066721086127,0.635573653388015,0.468190831743163,0.99721102906637
3,self,3,55,0.05,3.053,-179,-53,3.278,21,-80,6.391,0,3.421,0.45,0.4,200,-27,0.158820020817359,-1.53436694769685,-0.626855153857477,0.142473891540231,-0.74544301962435,1.45039022174735,-1.21846704760289,1.14517775385228,-0.252823049141308,1.99442205813274
3,self,4,70,0.2,2.994,-124,-53,2.295,-164,-32,4.257,0,2.738,0.3,0.1,-40,21,0.635280083269436,-1.06291341628162,-0.626855153857477,-1.11265324821895,-0.29817720784974,0.966926814498236,-0.174066721086127,-0.229035550770456,0.196640149332129,0.498605514533185
3,self,5,55,0.5,3.022,32,-1,3.464,186,-3,6.345,0,2.58,0.45,-0.05,154,-2,1.58820020817359,0.274300236459772,-0.0118274557331599,1.2619116107849,-0.0279541132359131,1.45039022174735,-1.21846704760289,0.881786870466255,-0.0187276332697265,-0.249302757266593
3,self,6,50,0.1,2.663,-135,-33,3.708,245,1,6.597,0,2.374,0.5,0.4,380,34,0.317640041634718,-1.15720412256466,-0.390306039194278,1.66219540130269,0.00931803774530438,1.61154469083039,-1.56660048977515,2.17583773231933,0.318369765585351,1.99442205813274
3,self,7,75,0.1,2.94,-180,-30,2.802,-145,-20,3.068,0,2.371,0.25,0.15,35,10,0.317640041634718,-1.54293883008622,-0.354823671994798,-0.983748298730165,-0.186360754906088,0.805772345415196,0.174066721086127,0.200406106924149,0.0936381663486326,0.747908271799778
3,self,8,60,0.25,2.995,-79,-29,3.317,11,-1,3.823,0,2.402,0.4,0.15,90,28,0.794100104086795,-0.677178708760061,-0.342996216261638,0.0746291812829781,-0.00931803774530438,1.28923575266431,-0.870333605430637,0.515329989233525,0.262186865776171,0.747908271799778
3,self,9,65,0.35,3.02,-85,-27,2.742,3,-2,4.618,0,2.177,0.35,0,88,25,1.11174014572151,-0.728610003096269,-0.319341304795318,0.0203534130771758,-0.0186360754906088,1.12808128358128,-0.522200163258382,0.503878211695003,0.234095415871582,0
3,self,10,90,0.5,2.769,54,-3,3.549,-188,-8,7.926,0,2.231,0.1,-0.4,-242,-5,1.58820020817359,0.462881649025865,-0.0354823671994798,-1.27548055283635,-0.074544301962435,0.322308938166079,1.21846704760289,-1.38566508216126,-0.0468190831743163,-1.99442205813274
3,self,11,80,0.45,3.852,73,-2,3.402,-189,-44,2.995,0,2.135,0.2,-0.25,-262,-42,1.42938018735623,0.625747414423854,-0.0236549114663199,-1.28226502386208,-0.409993660793393,0.644617876332157,0.522200163258382,-1.50018285754649,-0.393280298664257,-1.24651378633296
3,self,12,50,0.45,3.101,117,-3,3.197,245,2,3.577,0,4.072,0.5,0.05,128,5,1.42938018735623,1.00291023955604,-0.0354823671994798,1.66219540130269,0.0186360754906088,1.61154469083039,-1.56660048977515,0.732913762465458,0.0468190831743163,0.249302757266593
3,self,13,60,0.4,2.594,131,0,3.63,218,0,3.41,0,2.121,0.4,0,87,0,1.27056016653887,1.12291659300719,0,1.47901468360811,0,1.28923575266431,-0.870333605430637,0.498152322925741,0,0
3,self,14,85,0.35,2.152,105,-3,2.761,-209,-4,3.848,0,1.862,0.15,-0.2,-314,-1,1.11174014572151,0.900047650883626,-0.0354823671994798,-1.41795444437658,-0.0372721509812175,0.483463407249118,0.870333605430637,-1.79792907354808,-0.00936381663486326,-0.99721102906637
3,self,15,65,0.45,2.225,151,-1,2.59,33,-3,3.23,0,1.753,0.35,-0.1,-118,-2,1.42938018735623,1.29435424079455,-0.0118274557331599,0.223887543848934,-0.0279541132359131,1.12808128358128,-0.522200163258382,-0.675654874772844,-0.0187276332697265,-0.498605514533185
3,self,16,95,0.4,3.341,50,-3,4.738,-242,30,4.481,0,2.365,0.05,-0.35,-292,33,1.27056016653887,0.428594119468393,-0.0354823671994798,-1.64184198822552,0.279541132359131,0.161154469083039,1.56660048977515,-1.67195952062433,0.309005948950488,-1.74511930086615
3,self,17,85,0.5,2.24,83,-3,3.768,-205,25,5.554,0,4.172,0.15,-0.35,-288,28,1.58820020817359,0.711466238317533,-0.0354823671994798,-1.39081656027368,0.232950943632609,0.483463407249118,0.870333605430637,-1.64905596554728,0.262186865776171,-1.74511930086615
3,self,18,75,0.1,3.269,-238,0,3.089,-82,-4,4.12,0,2.027,0.25,0.15,156,-4,0.317640041634718,-2.04010800866955,0,-0.556326624109473,-0.0372721509812175,0.805772345415196,0.174066721086127,0.893238648004777,-0.037455266539453,0.747908271799778
3,self,19,80,0.4,2.231,76,-6,2.994,-171,-43,3.136,0,3.006,0.2,-0.2,-247,-37,1.27056016653887,0.651463061591958,-0.0709647343989597,-1.16014454539902,-0.400675623048088,0.644617876332157,0.522200163258382,-1.41429452600756,-0.346461215489941,-0.997211029066371
3,self,20,95,0.15,7.272,-74,-1,3.768,-231,51,3.771,0,1.935,0.05,-0.1,-157,52,0.476460062452077,-0.634319296813222,-0.0118274557331599,-1.56721280694254,0.475219925010523,0.161154469083039,1.56660048977515,-0.898964536774039,0.48691846501289,-0.498605514533185
4,self,1,50,0.5,3.224,245,247,3.918,244,232,3.214,0,6.406,0.5,0,-1,-15,1.58820020817359,2.10011118539513,2.92138156609051,1.65541093027697,2.16178475691062,1.61154469083039,-1.56660048977515,-0.00572588876926139,-0.140457249522949,0
4,self,2,60,0.5,0.934,244,243,2.978,227,227,3.519,0,2.29,0.4,-0.1,-17,-16,1.58820020817359,2.09153930300576,2.87407174315787,1.54007492283964,2.11519456818409,1.28923575266431,-0.870333605430637,-0.0973401090774437,-0.149821066157812,-0.498605514533185
4,self,3,50,0.5,1.225,240,242,2.633,244,245,2.185,0,2.203,0.5,0,4,3,1.58820020817359,2.05725177344829,2.86224428742471,1.65541093027697,2.28291924759957,1.61154469083039,-1.56660048977515,0.0229035550770456,0.0280914499045898,0
4,self,4,95,0.5,1.434,234,238,2.579,-241,235,4.321,1,1.731,0.05,-0.45,-475,-3,1.58820020817359,2.00582047911208,2.81493446449207,-1.63505751719979,2.18973887014653,0.161154469083039,1.56660048977515,-2.71979716539916,-0.0280914499045898,-2.24372481539933
4,self,5,90,0.5,1.438,239,240,2.12,-237,246,2.407,0,1.416,0.1,-0.4,-476,6,1.58820020817359,2.04867989105892,2.83858937595839,-1.60791963309689,2.29223728534488,0.322308938166079,1.21846704760289,-2.72552305416842,0.0561828998091796,-1.99442205813274
4,self,6,65,0.5,1.632,240,243,1.909,-244,235,3.838,1,2.829,0.35,-0.15,-484,-8,1.58820020817359,2.05725177344829,2.87407174315787,-1.65541093027697,2.18973887014653,1.12808128358128,-0.522200163258382,-2.77133016432251,-0.0749105330789061,-0.747908271799778
4,self,7,70,0.5,2.296,242,230,2.108,4,230,2.509,0,1.583,0.3,-0.2,-238,0,1.58820020817359,2.07439553822702,2.72031481862679,0.0271378841029011,2.14314868142001,0.966926814498236,-0.174066721086127,-1.36276152708421,0,-0.997211029066371
4,self,8,55,0.5,1.493,237,238,2.407,229,234,2.315,0,2.34,0.45,-0.05,-8,-4,1.58820020817359,2.03153612628018,2.81493446449207,1.55364386489109,2.18042083240122,1.45039022174735,-1.21846704760289,-0.0458071101540911,-0.037455266539453,-0.249302757266593
4,self,9,95,0.5,2.077,239,238,2.087,-235,237,2.455,1,1.656,0.05,-0.45,-474,-1,1.58820020817359,2.04867989105892,2.81493446449207,-1.59435069104544,2.20837494563714,0.161154469083039,1.56660048977515,-2.7140712766299,-0.00936381663486326,-2.24372481539933
4,self,10,90,0.5,0.845,237,241,2.832,-236,238,2.575,1,1.602,0.1,-0.4,-473,-3,1.58820020817359,2.03153612628018,2.85041683169155,-1.60113516207117,2.21769298338244,0.322308938166079,1.21846704760289,-2.70834538786064,-0.0280914499045898,-1.99442205813274
4,self,11,80,0.5,10.687,237,243,106.132,-230,236,2.575,1,3.018,0.2,-0.3,-467,-7,1.58820020817359,2.03153612628018,2.87407174315787,-1.56042833591681,2.19905690789183,0.644617876332157,0.522200163258382,-2.67399005524507,-0.0655467164440428,-1.49581654359956
4,self,12,85,0.5,1.315,229,214,2.356,-236,232,2.71,1,1.936,0.15,-0.35,-465,18,1.58820020817359,1.96296106716524,2.53107552689623,-1.60113516207117,2.16178475691062,0.483463407249118,0.870333605430637,-2.66253827770655,0.168548699427539,-1.74511930086615
4,self,13,85,0.5,3.969,225,226,2.13,-240,233,2.56,1,1.307,0.15,-0.35,-465,7,1.58820020817359,1.92867353760777,2.67300499569415,-1.62827304617407,2.17110279465592,0.483463407249118,0.870333605430637,-2.66253827770655,0.0655467164440428,-1.74511930086615
4,self,14,60,0.5,1.105,233,226,2.119,157,208,2.205,0,2.086,0.4,-0.1,-76,-18,1.58820020817359,1.99724859672271,2.67300499569415,1.06516195103887,1.93815185102331,1.28923575266431,-0.870333605430637,-0.435167546463866,-0.168548699427539,-0.498605514533185
4,self,15,75,0.5,1.53,216,220,1.984,-14,221,2.148,1,2.083,0.25,-0.25,-230,1,1.58820020817359,1.85152659610346,2.60204026129519,-0.0949825943601539,2.05928634171227,0.805772345415196,0.174066721086127,-1.31695441693012,0.00936381663486326,-1.24651378633296
4,self,16,80,0.5,1.453,232,242,2.035,-125,234,1.986,1,1.844,0.2,-0.3,-357,-8,1.58820020817359,1.98867671433334,2.86224428742471,-0.84805887821566,2.18042083240122,0.644617876332157,0.522200163258382,-2.04414229062632,-0.0749105330789061,-1.49581654359956
4,self,17,75,0.5,1.686,237,232,2.1,-32,222,2.007,1,1.574,0.25,-0.25,-269,-10,1.58820020817359,2.03153612628018,2.74396973009311,-0.217103072823209,2.06860437945757,0.805772345415196,0.174066721086127,-1.54026407893131,-0.0936381663486326,-1.24651378633296
4,self,18,55,0.5,1.604,224,229,1.981,232,224,2.059,0,1.991,0.45,-0.05,8,-5,1.58820020817359,1.9201016552184,2.70848736289363,1.57399727796826,2.08724045494818,1.45039022174735,-1.21846704760289,0.0458071101540911,-0.0468190831743163,-0.249302757266593
4,self,19,65,0.5,2.004,228,228,2.219,102,208,2.018,0,1.684,0.35,-0.15,-126,-20,1.58820020817359,1.95438918477587,2.69665990716047,0.692016044623978,1.93815185102331,1.12808128358128,-0.522200163258382,-0.721461984926936,-0.187276332697265,-0.747908271799778
4,self,20,70,0.5,1.407,245,215,1.852,76,208,2.035,0,1.483,0.3,-0.2,-169,-7,1.58820020817359,2.10011118539513,2.54290298262939,0.515619797955121,1.93815185102331,0.966926814498236,-0.174066721086127,-0.967675202005176,-0.0655467164440428,-0.997211029066371
5,self,1,85,0.15,5.174,-109,2,4.7,-135,3,7.819,0,8.013,0.15,0,-26,1,0.476460062452077,-0.934335180441097,0.0236549114663199,-0.915903588472913,0.0279541132359131,0.483463407249118,0.870333605430637,-0.148873108000796,0.00936381663486326,0
5,self,2,80,0.45,3.672,-12,4,4.415,-133,0,6.747,0,6.957,0.2,-0.25,-121,-4,1.42938018735623,-0.102862588672414,0.0473098229326398,-0.902334646421462,0,0.644617876332157,0.522200163258382,-0.692832541080629,-0.037455266539453,-1.24651378633296
5,self,3,60,0.25,4.099,-67,-2,26.65,-51,-1,3.947,0,19.816,0.4,0.15,16,1,0.794100104086795,-0.574316120087647,-0.0236549114663199,-0.346008022311989,-0.00931803774530438,1.28923575266431,-0.870333605430637,0.0916142203081823,0.00936381663486326,0.747908271799778
5,self,4,55,0.05,5.145,-205,-1,3.063,-18,-1,6.991,0,8.008,0.45,0.4,187,0,0.158820020817359,-1.75723588982041,-0.0118274557331599,-0.122120478463055,-0.00931803774530438,1.45039022174735,-1.21846704760289,1.07074119985188,0,1.99442205813274
5,self,5,70,0.2,2.379,-164,0,3.569,-128,-3,3.546,0,3.071,0.3,0.1,36,-3,0.635280083269436,-1.40578871185633,0,-0.868412291292836,-0.0279541132359131,0.966926814498236,-0.174066721086127,0.20613199569341,-0.0280914499045898,0.498605514533185
5,self,6,95,0.4,4.216,-39,1,3.207,-230,-3,3.637,1,3.741,0.05,-0.35,-191,-4,1.27056016653887,-0.334303413185347,0.0118274557331599,-1.56042833591681,-0.0279541132359131,0.161154469083039,1.56660048977515,-1.09364475492893,-0.037455266539453,-1.74511930086615
5,self,7,90,0.25,3.923,-155,-1,3.299,-199,3,3.724,1,3.742,0.1,-0.15,-44,4,0.794100104086795,-1.32864177035202,-0.0118274557331599,-1.35010973411933,0.0279541132359131,0.322308938166079,1.21846704760289,-0.251939105847501,0.037455266539453,-0.747908271799778
5,self,8,70,0.5,3.504,-2,3,3.381,-65,-6,3.175,0,2.919,0.3,-0.2,-63,-9,1.58820020817359,-0.0171437647787357,0.0354823671994798,-0.440990616672143,-0.0559082264718263,0.966926814498236,-0.174066721086127,-0.360730992463468,-0.0842743497137694,-0.997211029066371
5,self,9,90,0.3,2.851,-103,4,3.475,-206,-2,3.019,1,3.104,0.1,-0.2,-103,-6,0.952920124904154,-0.88290388610489,0.0473098229326398,-1.39760103129941,-0.0186360754906088,0.322308938166079,1.21846704760289,-0.589766543233924,-0.0561828998091796,-0.99721102906637
5,self,10,80,0.25,3.952,-155,10,2.819,-159,-1,3.243,0,2.246,0.2,-0.05,-4,-11,0.794100104086795,-1.32864177035202,0.118274557331599,-1.07873089309032,-0.00931803774530438,0.644617876332157,0.522200163258382,-0.0229035550770456,-0.103001982983496,-0.249302757266593
5,self,11,85,0.4,5.246,-63,10,2.647,-161,14,2.337,1,3.019,0.15,-0.25,-98,4,1.27056016653887,-0.540028590530175,0.118274557331599,-1.09229983514177,0.130452528434261,0.483463407249118,0.870333605430637,-0.561137099387617,0.037455266539453,-1.24651378633296
5,self,12,75,0.35,1.872,-97,4,2.781,-148,-2,2.6,0,2.217,0.25,-0.1,-51,-6,1.11174014572151,-0.831472591768683,0.0473098229326398,-1.00410171180734,-0.0186360754906088,0.805772345415196,0.174066721086127,-0.292020327232331,-0.0561828998091796,-0.498605514533185
5,self,13,60,0.3,2.024,-130,16,2.455,-53,6,4.328,0,2.406,0.4,0.1,77,-10,0.952920124904154,-1.11434471061782,0.189239291730559,-0.35957696436344,0.0559082264718263,1.28923575266431,-0.870333605430637,0.440893435233127,-0.0936381663486326,0.498605514533185
5,self,14,65,0.05,2.942,-230,-5,2.559,-96,-1,3.912,0,2.267,0.35,0.3,134,4,0.158820020817359,-1.97153294955461,-0.0591372786657997,-0.651309218469627,-0.00931803774530438,1.12808128358128,-0.522200163258382,0.767269095081027,0.037455266539453,1.49581654359956
5,self,15,95,0.2,27.115,-195,21,3.116,-234,-86,4.054,1,2.215,0.05,-0.15,-39,-107,0.635280083269436,-1.67151706592673,0.248376570396359,-1.58756622001972,-0.801351246096176,0.161154469083039,1.56660048977515,-0.223309662001194,-1.00192837993037,-0.747908271799778
5,self,16,65,0.35,2.172,-104,-2,4.266,-90,-1,3.237,0,1.86,0.35,0,14,1,1.11174014572151,-0.891475768494258,-0.0236549114663199,-0.610602392315275,-0.00931803774530438,1.12808128358128,-0.522200163258382,0.0801624427696595,0.00936381663486326,0
5,self,17,50,0.4,2.189,-48,-9,2.467,164,0,3.674,0,3.134,0.5,0.1,212,9,1.27056016653887,-0.411450354689658,-0.106447101598439,1.11265324821895,0,1.61154469083039,-1.56660048977515,1.21388841908342,0.0842743497137694,0.498605514533185
5,self,18,75,0.35,1.617,-28,-11,2.528,-103,1,2.596,0,1.664,0.25,-0.1,-75,12,1.11174014572151,-0.2400127069023,-0.130102013064759,-0.698800515649704,0.00931803774530438,0.805772345415196,0.174066721086127,-0.429441657694605,0.112365799618359,-0.498605514533185
5,self,19,50,0.1,2.789,-146,-22,2.231,145,-1,2.749,0,2.339,0.5,0.4,291,21,0.317640041634718,-1.25149482884771,-0.260204026129519,0.983748298730165,-0.00931803774530438,1.61154469083039,-1.56660048977515,1.66623363185507,0.196640149332129,1.99442205813274
5,self,20,55,0.35,2.297,-43,1,2.906,35,1,2.881,0,2.793,0.45,0.1,78,0,1.11174014572151,-0.368590942742818,0.0118274557331599,0.237456485900385,0.00931803774530438,1.45039022174735,-1.21846704760289,0.446619324002389,0,0.498605514533185
6,self,1,55,0.5,6.744,234,-3,11.187,187,-5,11.35,0,5.091,0.45,-0.05,-47,-2,1.58820020817359,2.00582047911208,-0.0354823671994798,1.26869608181063,-0.0465901887265219,1.45039022174735,-1.21846704760289,-0.269116772155286,-0.0187276332697265,-0.249302757266593
6,self,2,60,0.5,0.887,231,1,5.43,-2,136,8.601,0,2.669,0.4,-0.1,-233,135,1.58820020817359,1.98010483194398,0.0118274557331599,-0.0135689420514506,1.2672531333614,1.28923575266431,-0.870333605430637,-1.3341320832379,1.26411524570654,-0.498605514533185
6,self,3,90,0.5,0.92,-3,233,6.688,-234,-1,9.977,1,5.457,0.1,-0.4,-231,-234,1.58820020817359,-0.0257156471681036,2.75579718582627,-1.58756622001972,-0.00931803774530438,0.322308938166079,1.21846704760289,-1.32268030569938,-2.191133092558,-1.99442205813274
6,self,4,65,0.5,1.992,228,8,4.661,101,-5,7.824,0,3.827,0.35,-0.15,-127,-13,1.58820020817359,1.95438918477587,0.0946196458652795,0.685231573598253,-0.0465901887265219,1.12808128358128,-0.522200163258382,-0.727187873696197,-0.121729616253222,-0.747908271799778
6,self,5,85,0.5,4.039,233,3,4.132,-234,-3,4.419,1,4.723,0.15,-0.35,-467,-6,1.58820020817359,1.99724859672271,0.0354823671994798,-1.58756622001972,-0.0279541132359131,0.483463407249118,0.870333605430637,-2.67399005524507,-0.0561828998091796,-1.74511930086615
6,self,6,50,0.5,1.567,229,0,3.372,236,0,6.757,0,4.211,0.5,0,7,0,1.58820020817359,1.96296106716524,0,1.60113516207117,0,1.61154469083039,-1.56660048977515,0.0400812213848298,0,0
6,self,7,95,0.5,0.516,195,-8,4.036,-237,4,5.455,1,2.642,0.05,-0.45,-432,12,1.58820020817359,1.67151706592673,-0.0946196458652795,-1.60791963309689,0.0372721509812175,0.161154469083039,1.56660048977515,-2.47358394832092,0.112365799618359,-2.24372481539933
6,self,8,50,0.5,2.568,238,0,3.976,225,-5,4.365,0,3.214,0.5,0,-13,-5,1.58820020817359,2.04010800866955,0,1.52650598078819,-0.0465901887265219,1.61154469083039,-1.56660048977515,-0.0744365540003981,-0.0468190831743163,0
6,self,9,80,0.35,1.857,207,2,3.451,-228,1,3.954,1,3.214,0.2,-0.15,-435,-1,1.11174014572151,1.77437965459915,0.0236549114663199,-1.54685939386536,0.00931803774530438,0.644617876332157,0.522200163258382,-2.49076161462871,-0.00936381663486326,-0.747908271799778
6,self,10,60,0.5,0.712,231,-15,4.353,174,-6,4.613,0,4.157,0.4,-0.1,-57,9,1.58820020817359,1.98010483194398,-0.177411835997399,1.1804979584762,-0.0559082264718263,1.28923575266431,-0.870333605430637,-0.326375659847899,0.0842743497137694,-0.498605514533185
6,self,11,70,0.45,0.498,226,2,4.518,234,-2,5.209,0,3.344,0.3,-0.15,8,-4,1.42938018735623,1.93724541999714,0.0236549114663199,1.58756622001972,-0.0186360754906088,0.966926814498236,-0.174066721086127,0.0458071101540911,-0.037455266539453,-0.747908271799778
6,self,12,80,0.4,0.582,188,3,3.304,-232,2,3.925,1,6.921,0.2,-0.2,-420,-1,1.27056016653887,1.61151388920116,0.0354823671994798,-1.57399727796826,0.0186360754906088,0.644617876332157,0.522200163258382,-2.40487328308979,-0.00936381663486326,-0.997211029066371
6,self,13,70,0.45,0.682,205,-6,3.321,193,-1,5.62,0,2.84,0.3,-0.15,-12,5,1.42938018735623,1.75723588982041,-0.0709647343989597,1.30940290796498,-0.00931803774530438,0.966926814498236,-0.174066721086127,-0.0687106652311367,0.0468190831743163,-0.747908271799778
6,self,14,55,0.5,4.712,204,1,3.709,233,5,4.655,0,3.165,0.45,-0.05,29,4,1.58820020817359,1.74866400743104,0.0118274557331599,1.58078174899399,0.0465901887265219,1.45039022174735,-1.21846704760289,0.16605077430858,0.037455266539453,-0.249302757266593
6,self,15,90,0.5,3.131,224,0,5.73,-234,0,4.542,1,3.334,0.1,-0.4,-458,0,1.58820020817359,1.9201016552184,0,-1.58756622001972,0,0.322308938166079,1.21846704760289,-2.62245705632172,0,-1.99442205813274
6,self,16,85,0.5,0.587,216,4,3.877,-190,1,9.85,1,3.357,0.15,-0.35,-406,-3,1.58820020817359,1.85152659610346,0.0473098229326398,-1.2890494948878,0.00931803774530438,0.483463407249118,0.870333605430637,-2.32471084032013,-0.0280914499045898,-1.74511930086615
6,self,17,65,0.5,0.857,225,-7,3.429,213,-6,3.838,0,2.758,0.35,-0.15,-12,1,1.58820020817359,1.92867353760777,-0.0827921901321196,1.44509232847948,-0.0559082264718263,1.12808128358128,-0.522200163258382,-0.0687106652311367,0.00936381663486326,-0.747908271799778
6,self,18,75,0.5,1.644,238,3,4.673,226,-1,5.185,0,2.67,0.25,-0.25,-12,-4,1.58820020817359,2.04010800866955,0.0354823671994798,1.53329045181391,-0.00931803774530438,0.805772345415196,0.174066721086127,-0.0687106652311367,-0.037455266539453,-1.24651378633296
6,self,19,95,0.5,1.2,-166,-4,4.115,-227,-1,4.321,1,4.332,0.05,-0.45,-61,3,1.58820020817359,-1.42293247663507,-0.0473098229326398,-1.54007492283964,-0.00931803774530438,0.161154469083039,1.56660048977515,-0.349279214924945,0.0280914499045898,-2.24372481539933
6,self,20,75,0.5,2.844,2,235,7.103,231,9,4.446,0,2.451,0.25,-0.25,229,-226,1.58820020817359,0.0171437647787357,2.77945209729259,1.56721280694254,0.0838623397077394,0.805772345415196,0.174066721086127,1.31122852816086,-2.1162225594791,-1.24651378633296
7,self,1,70,0.2,6.875,-15,20,10.255,-31,-1,11.163,0,5.302,0.3,0.1,-16,-21,0.635280083269436,-0.128578235840518,0.236549114663199,-0.210318601797484,-0.00931803774530438,0.966926814498236,-0.174066721086127,-0.0916142203081823,-0.196640149332129,0.498605514533185
7,self,2,95,0.1,5.885,-26,9,8.225,-14,19,7.257,1,3.623,0.05,-0.05,12,10,0.317640041634718,-0.222868942123565,0.106447101598439,-0.0949825943601539,0.177042717160783,0.161154469083039,1.56660048977515,0.0687106652311367,0.0936381663486326,-0.249302757266593
7,self,3,55,0.5,5.658,62,4,3.898,109,2,5.595,0,3.2,0.45,-0.05,47,-2,1.58820020817359,0.531456708140808,0.0473098229326398,0.739507341804055,0.0186360754906088,1.45039022174735,-1.21846704760289,0.269116772155286,-0.0187276332697265,-0.249302757266593
7,self,4,90,0.15,5.852,-6,4,7.159,-31,7,5.546,0,4.89,0.1,-0.05,-25,3,0.476460062452077,-0.0514312943362072,0.0473098229326398,-0.210318601797484,0.0652262642171306,0.322308938166079,1.21846704760289,-0.143147219231535,0.0280914499045898,-0.249302757266593
7,self,5,60,0.15,4.884,-32,-14,3.861,39,27,4.866,0,3.012,0.4,0.25,71,41,0.476460062452077,-0.274300236459772,-0.165584380264239,0.264594370003286,0.251587019123218,1.28923575266431,-0.870333605430637,0.406538102617559,0.383916482029394,1.24651378633296
7,self,6,80,0.4,5.944,51,7,3.642,-18,3,5.49,0,2.93,0.2,-0.2,-69,-4,1.27056016653887,0.437166001857761,0.0827921901321196,-0.122120478463055,0.0279541132359131,0.644617876332157,0.522200163258382,-0.395086325079036,-0.037455266539453,-0.997211029066371
7,self,7,75,0.2,6.106,-51,6,5.563,-7,-2,6.68,0,3.134,0.25,0.05,44,-8,0.635280083269436,-0.437166001857761,0.0709647343989597,-0.0474912971800769,-0.0186360754906088,0.805772345415196,0.174066721086127,0.251939105847501,-0.0749105330789061,0.249302757266593
7,self,8,95,0.05,8.763,-47,15,5.235,-68,6,5.512,1,2.967,0.05,0,-21,-9,0.158820020817359,-0.40287847230029,0.177411835997399,-0.461344029749319,0.0559082264718263,0.161154469083039,1.56660048977515,-0.120243664154489,-0.0842743497137694,0
7,self,9,55,0.1,4.278,-51,-14,4.025,194,23,3.788,0,3.018,0.45,0.35,245,37,0.317640041634718,-0.437166001857761,-0.165584380264239,1.3161873789907,0.214314868142001,1.45039022174735,-1.21846704760289,1.40284274846904,0.346461215489941,1.74511930086615
7,self,10,80,0.25,6.021,-13,-3,4.477,-14,3,4.127,0,2.984,0.2,-0.05,-1,6,0.794100104086795,-0.111434471061782,-0.0354823671994798,-0.0949825943601539,0.0279541132359131,0.644617876332157,0.522200163258382,-0.00572588876926139,0.0561828998091796,-0.249302757266593
7,self,11,90,0.15,4.162,-47,9,3.957,-77,2,4.092,0,4.925,0.1,-0.05,-30,-7,0.476460062452077,-0.40287847230029,0.106447101598439,-0.522404268980846,0.0186360754906088,0.322308938166079,1.21846704760289,-0.171776663077842,-0.0655467164440428,-0.249302757266593
7,self,12,50,0.45,5.359,78,12,3.489,208,36,3.711,0,2.616,0.5,0.05,130,24,1.42938018735623,0.668606826370693,0.141929468797919,1.41116997335086,0.335449358830958,1.61154469083039,-1.56660048977515,0.744365540003981,0.224731599236718,0.249302757266593
7,self,13,50,0.3,4.555,28,20,4.028,222,51,6.277,0,2.687,0.5,0.2,194,31,0.952920124904154,0.2400127069023,0.236549114663199,1.50615256771101,0.475219925010523,1.61154469083039,-1.56660048977515,1.11082242123671,0.290278315680761,0.997211029066371
7,self,14,85,0.35,6.542,81,20,9.842,-42,4,7.706,0,3.248,0.15,-0.2,-123,-16,1.11174014572151,0.694322473538797,0.236549114663199,-0.284947783080462,0.0372721509812175,0.483463407249118,0.870333605430637,-0.704284318619151,-0.149821066157812,-0.99721102906637
7,self,15,65,0.2,4.028,-76,21,3.563,20,3,5.741,0,3.17,0.35,0.15,96,-18,0.635280083269436,-0.651463061591958,0.248376570396359,0.135689420514506,0.0279541132359131,1.12808128358128,-0.522200163258382,0.549685321849094,-0.168548699427539,0.747908271799778
7,self,16,60,0.05,3.644,-118,30,3.135,155,22,5.236,0,2.82,0.4,0.35,273,-8,0.158820020817359,-1.01148212194541,0.354823671994798,1.05159300898742,0.204996830396696,1.28923575266431,-0.870333605430637,1.56316763400836,-0.0749105330789061,1.74511930086615
7,self,17,75,0.1,9.527,-53,9,3.443,8,0,5.305,0,2.547,0.25,0.15,61,-9,0.317640041634718,-0.454309766636497,0.106447101598439,0.0542757682058022,0,0.805772345415196,0.174066721086127,0.349279214924945,-0.0842743497137694,0.747908271799778
7,self,18,70,0.1,6.362,-63,8,8.738,8,3,4.947,0,2.835,0.3,0.2,71,-5,0.317640041634718,-0.540028590530175,0.0946196458652795,0.0542757682058022,0.0279541132359131,0.966926814498236,-0.174066721086127,0.406538102617559,-0.0468190831743163,0.99721102906637
7,self,19,85,0.15,3.945,-44,-4,3.569,-11,1,6.862,0,2.921,0.15,0,33,5,0.476460062452077,-0.377162825132186,-0.0473098229326398,-0.0746291812829781,0.00931803774530438,0.483463407249118,0.870333605430637,0.188954329385626,0.0468190831743163,0
7,self,20,65,0.3,6.799,9,0,3.802,32,13,3.961,0,2.788,0.35,0.05,23,13,0.952920124904154,0.0771469415043108,0,0.217103072823209,0.121134490688957,1.12808128358128,-0.522200163258382,0.131695441693012,0.121729616253222,0.249302757266593
8,self,1,50,0.1,6.279,-147,-87,7.401,174,-2,7.132,0,7.447,0.5,0.4,321,85,0.317640041634718,-1.26006671123708,-1.02898864878491,1.1804979584762,-0.0186360754906088,1.61154469083039,-1.56660048977515,1.83801029493291,0.795924413963377,1.99442205813274
8,self,2,55,0.1,5.86,-156,0,5.37,101,1,7.769,0,4.048,0.45,0.35,257,1,0.317640041634718,-1.33721365274139,0,0.685231573598253,0.00931803774530438,1.45039022174735,-1.21846704760289,1.47155341370018,0.00936381663486326,1.74511930086615
8,self,3,95,0.05,4.494,-191,68,5.975,-216,172,7.09,0,16.129,0.05,0,-25,104,0.158820020817359,-1.63722953636926,0.804266989854876,-1.46544574155666,1.60270249219235,0.161154469083039,1.56660048977515,-0.143147219231535,0.973836930025779,0
8,self,4,90,0.15,4.65,-119,-2,5.024,-208,130,4.67,0,3.35,0.1,-0.05,-89,132,0.476460062452077,-1.02005400433478,-0.0236549114663199,-1.41116997335086,1.21134490688957,0.322308938166079,1.21846704760289,-0.509604100464264,1.23602379580195,-0.249302757266593
8,self,5,80,0.15,4.301,-125,0,5.136,-164,2,6.372,0,4.056,0.2,0.05,-39,2,0.476460062452077,-1.07148529867098,0,-1.11265324821895,0.0186360754906088,0.644617876332157,0.522200163258382,-0.223309662001194,0.0187276332697265,0.249302757266593
8,self,6,85,0.2,4.304,-108,1,4.19,-164,-69,5.252,0,3.956,0.15,-0.05,-56,-70,0.635280083269436,-0.92576329805173,0.0118274557331599,-1.11265324821895,-0.642944604426002,0.483463407249118,0.870333605430637,-0.320649771078638,-0.655467164440428,-0.249302757266593
8,self,7,65,0.15,4.155,-129,2,5.1,100,-2,4.989,0,3.003,0.35,0.2,229,-4,0.476460062452077,-1.10577282822845,0.0236549114663199,0.678447102572528,-0.0186360754906088,1.12808128358128,-0.522200163258382,1.31122852816086,-0.037455266539453,0.99721102906637
8,self,8,75,0.15,5.288,-165,0,5.089,36,-1,8.952,0,3.596,0.25,0.1,201,-1,0.476460062452077,-1.4143605942457,0,0.24424095692611,-0.00931803774530438,0.805772345415196,0.174066721086127,1.15090364262154,-0.00936381663486326,0.498605514533185
8,self,9,80,0.2,4.399,-117,-3,4.185,-144,-53,3.765,0,3.193,0.2,0,-27,-50,0.635280083269436,-1.00291023955604,-0.0354823671994798,-0.97696382770444,-0.493856000501132,0.644617876332157,0.522200163258382,-0.154598996770058,-0.468190831743163,0
8,self,10,50,0.15,2.765,-162,-6,4.49,200,-1,4.741,0,3.643,0.5,0.35,362,5,0.476460062452077,-1.38864494707759,-0.0709647343989597,1.35689420514506,-0.00931803774530438,1.61154469083039,-1.56660048977515,2.07277173447262,0.0468190831743163,1.74511930086615
8,self,11,55,0.15,15.57,-135,-3,6.658,113,39,4.988,0,22.012,0.45,0.3,248,42,0.476460062452077,-1.15720412256466,-0.0354823671994798,0.766645225906956,0.363403472066871,1.45039022174735,-1.21846704760289,1.42002041477683,0.393280298664257,1.49581654359956
8,self,12,60,0.1,4.407,-153,1,4.353,156,2,4.576,0,2.825,0.4,0.3,309,1,0.317640041634718,-1.31149800557328,0.0118274557331599,1.05837748001314,0.0186360754906088,1.28923575266431,-0.870333605430637,1.76929962970177,0.00936381663486326,1.49581654359956
8,self,13,65,0.05,4.095,-139,2,4.229,94,-4,4.576,0,3.887,0.35,0.3,233,-6,0.158820020817359,-1.19149165212213,0.0236549114663199,0.637740276418176,-0.0372721509812175,1.12808128358128,-0.522200163258382,1.3341320832379,-0.0561828998091796,1.49581654359956
8,self,14,60,0.1,3.701,-106,-4,4.909,119,-7,7.908,0,3.115,0.4,0.3,225,-3,0.317640041634718,-0.908619533272994,-0.0473098229326398,0.807352052061308,-0.0652262642171306,1.28923575266431,-0.870333605430637,1.28832497308381,-0.0280914499045898,1.49581654359956
8,self,15,70,0.1,8.293,-118,-5,4.307,81,-4,4.043,0,4.068,0.3,0.2,199,1,0.317640041634718,-1.01148212194541,-0.0591372786657997,0.549542153083748,-0.0372721509812175,0.966926814498236,-0.174066721086127,1.13945186508302,0.00936381663486326,0.99721102906637
8,self,16,95,0.15,3.858,-129,-15,3.876,-203,125,5.254,0,4.387,0.05,-0.1,-74,140,0.476460062452077,-1.10577282822845,-0.177411835997399,-1.37724761822223,1.16475471816305,0.161154469083039,1.56660048977515,-0.423715768925343,1.31093432888086,-0.498605514533185
8,self,17,85,0.15,3.946,-113,0,3.339,-145,-18,24.461,0,2.974,0.15,0,-32,-18,0.476460062452077,-0.968622709998569,0,-0.983748298730165,-0.167724679415479,0.483463407249118,0.870333605430637,-0.183228440616365,-0.168548699427539,0
8,self,18,75,0.2,3.525,-107,-16,3.382,-96,-47,3.685,0,2.767,0.25,0.05,11,-31,0.635280083269436,-0.917191415662362,-0.189239291730559,-0.651309218469627,-0.437947774029306,0.805772345415196,0.174066721086127,0.0629847764618753,-0.290278315680761,0.249302757266593
8,self,19,70,0.15,4.564,-110,-14,3.462,29,-1,3.797,0,3.542,0.3,0.15,139,13,0.476460062452077,-0.942907062830465,-0.165584380264239,0.196749659746033,-0.00931803774530438,0.966926814498236,-0.174066721086127,0.795898538927334,0.121729616253222,0.747908271799778
8,self,20,90,0.1,3.998,-141,-12,4.246,-187,-40,5.543,0,3.613,0.1,0,-46,-28,0.317640041634718,-1.20863541690087,-0.141929468797919,-1.26869608181063,-0.372721509812175,0.322308938166079,1.21846704760289,-0.263390883386024,-0.262186865776171,0
9,self,1,90,0.25,16.465,-192,64,10.485,-237,145,15.916,1,8.392,0.1,-0.15,-45,81,0.794100104086795,-1.64580141875863,0.756957166922236,-1.60791963309689,1.35111547306913,0.322308938166079,1.21846704760289,-0.257664994616763,0.758469147423924,-0.747908271799778
9,self,2,80,0.4,7.231,119,20,11.182,-107,43,9.239,1,6.39,0.2,-0.2,-226,23,1.27056016653887,1.02005400433478,0.236549114663199,-0.725938399752605,0.400675623048088,0.644617876332157,0.522200163258382,-1.29405086185307,0.215367782601855,-0.997211029066371
9,self,3,55,0.1,6.071,-168,19,11.112,140,19,10.8,0,5.964,0.45,0.35,308,0,0.317640041634718,-1.4400762414138,0.224721658930039,0.949825943601539,0.177042717160783,1.45039022174735,-1.21846704760289,1.76357374093251,0,1.74511930086615
9,self,4,60,0.35,5.368,29,78,8.307,149,54,7.959,0,5.501,0.4,0.05,120,-24,1.11174014572151,0.248584589291668,0.922541547186476,1.01088618283307,0.503174038246436,1.28923575266431,-0.870333605430637,0.687106652311367,-0.224731599236718,0.249302757266593
9,self,5,55,0.45,4.225,182,129,6.639,207,98,8.159,0,5.043,0.45,0,25,-31,1.42938018735623,1.56008259486495,1.52574178957763,1.40438550232513,0.913167699039829,1.45039022174735,-1.21846704760289,0.143147219231535,-0.290278315680761,0
9,self,6,65,0.25,4.751,-135,-14,8.179,-202,-21,7.887,0,5.345,0.35,0.1,-67,-7,0.794100104086795,-1.15720412256466,-0.165584380264239,-1.37046314719651,-0.195678792651392,1.12808128358128,-0.522200163258382,-0.383634547540513,-0.0655467164440428,0.498605514533185
9,self,7,95,0.2,5.453,-188,-96,7.662,-223,223,7.768,1,5.27,0.05,-0.15,-35,319,0.635280083269436,-1.61151388920116,-1.13543575038335,-1.51293703873674,2.07792241720288,0.161154469083039,1.56660048977515,-0.200406106924149,2.98705750652138,-0.747908271799778
9,self,8,95,0.35,3.948,-131,-85,8.695,-224,152,8.306,1,5.136,0.05,-0.3,-93,237,1.11174014572151,-1.12291659300719,-1.0053337373186,-1.51972150976246,1.41634173728627,0.161154469083039,1.56660048977515,-0.53250765554131,2.21922454246259,-1.49581654359956
9,self,9,70,0.45,4.597,-205,-77,9.442,-213,-20,5.816,0,5.023,0.3,-0.15,-8,57,1.42938018735623,-1.75723588982041,-0.910714091453316,-1.44509232847948,-0.186360754906088,0.966926814498236,-0.174066721086127,-0.0458071101540911,0.533737548187206,-0.747908271799778
9,self,10,75,0.05,4.023,-218,-66,7.685,-218,56,8.259,0,4.59,0.25,0.2,0,122,0.158820020817359,-1.86867036088219,-0.780612078388556,-1.47901468360811,0.521810113737045,0.805772345415196,0.174066721086127,0,1.14238562945332,0.997211029066371
9,self,11,75,0.1,4.151,-147,-146,6.865,-159,-2,8.403,0,4.21,0.25,0.15,-12,144,0.317640041634718,-1.26006671123708,-1.72680853704135,-1.07873089309032,-0.0186360754906088,0.805772345415196,0.174066721086127,-0.0687106652311367,1.34838959542031,0.747908271799778
9,self,12,50,0.25,5.708,64,-36,10.264,177,139,6.663,0,5.345,0.5,0.25,113,175,0.794100104086795,0.548600472919543,-0.425788406393758,1.20085137155337,1.29520724659731,1.61154469083039,-1.56660048977515,0.647025430926537,1.63866791110107,1.24651378633296
9,self,13,70,0.05,4.181,-197,-33,8.304,-21,-17,7.492,0,3.49,0.3,0.25,176,16,0.158820020817359,-1.68866083070547,-0.390306039194278,-0.142473891540231,-0.158406641670174,0.966926814498236,-0.174066721086127,1.00775642339001,0.149821066157812,1.24651378633296
9,self,14,85,0.2,3.995,-89,-35,23.991,-213,59,6.672,1,4.021,0.15,-0.05,-124,94,0.635280083269436,-0.76289753265374,-0.413960950660598,-1.44509232847948,0.549764226972958,0.483463407249118,0.870333605430637,-0.710010207388413,0.880198763677147,-0.249302757266593
9,self,15,65,0.3,4.099,54,-30,8.296,133,34,6.891,0,3.682,0.35,0.05,79,64,0.952920124904154,0.462881649025865,-0.354823671994798,0.902334646421462,0.316813283340349,1.12808128358128,-0.522200163258382,0.45234521277165,0.599284264631249,0.249302757266593
9,self,16,50,0.4,4.605,141,-23,5.782,174,49,6.919,0,4.032,0.5,0.1,33,72,1.27056016653887,1.20863541690087,-0.272031481862679,1.1804979584762,0.456583849519914,1.61154469083039,-1.56660048977515,0.188954329385626,0.674194797710155,0.498605514533185
9,self,17,80,0,5.998,-234,-96,7.341,-227,81,6.402,1,4.125,0.2,0.2,7,177,0,-2.00582047911208,-1.13543575038335,-1.54007492283964,0.754761057369654,0.644617876332157,0.522200163258382,0.0400812213848298,1.6573955443708,0.997211029066371
9,self,18,90,0.35,4.335,84,-190,6.881,-160,72,7.182,1,4.908,0.1,-0.25,-244,262,1.11174014572151,0.720038120706901,-2.24721658930039,-1.08551536411604,0.670898717661915,0.322308938166079,1.21846704760289,-1.39711685969978,2.45331995833417,-1.24651378633296
9,self,19,60,0.25,4.29,11,-19,6.207,65,100,6.682,0,5.255,0.4,0.15,54,119,0.794100104086795,0.0942907062830465,-0.224721658930039,0.440990616672143,0.931803774530438,1.28923575266431,-0.870333605430637,0.309197993540115,1.11429417954873,0.747908271799778
9,self,20,85,0.05,4.03,-34,-49,6.135,0,-1,9.024,1,4.864,0.15,0.1,34,48,0.158820020817359,-0.291444001238507,-0.579545330924837,0,-0.00931803774530438,0.483463407249118,0.870333605430637,0.194680218154887,0.449463198473437,0.498605514533185
10,self,1,65,0.5,6.524,1,-2,5.596,2,1,6.211,0,4.092,0.35,-0.15,1,3,1.58820020817359,0.00857188238936787,-0.0236549114663199,0.0135689420514506,0.00931803774530438,1.12808128358128,-0.522200163258382,0.00572588876926139,0.0280914499045898,-0.747908271799778
10,self,2,80,0.5,6.33,2,1,4.497,2,0,4.623,0,2.225,0.2,-0.3,0,-1,1.58820020817359,0.0171437647787357,0.0118274557331599,0.0135689420514506,0,0.644617876332157,0.522200163258382,0,-0.00936381663486326,-1.49581654359956
10,self,3,85,0.5,4.532,2,3,3.726,2,-3,2.573,0,2.877,0.15,-0.35,0,-6,1.58820020817359,0.0171437647787357,0.0354823671994798,0.0135689420514506,-0.0279541132359131,0.483463407249118,0.870333605430637,0,-0.0561828998091796,-1.74511930086615
10,self,4,85,0.5,2.783,-1,-1,14.437,2,-2,2.107,0,2.778,0.15,-0.35,3,-1,1.58820020817359,-0.00857188238936787,-0.0118274557331599,0.0135689420514506,-0.0186360754906088,0.483463407249118,0.870333605430637,0.0171776663077842,-0.00936381663486326,-1.74511930086615
10,self,5,75,0.5,2.1,2,-1,5.102,0,-1,4.644,0,3.572,0.25,-0.25,-2,0,1.58820020817359,0.0171437647787357,-0.0118274557331599,0,-0.00931803774530438,0.805772345415196,0.174066721086127,-0.0114517775385228,0,-1.24651378633296
10,self,6,55,0.5,1.842,6,-1,9.77,6,-1,4.576,0,7.219,0.45,-0.05,0,0,1.58820020817359,0.0514312943362072,-0.0118274557331599,0.0407068261543517,-0.00931803774530438,1.45039022174735,-1.21846704760289,0,0,-0.249302757266593
10,self,7,65,0.5,10.998,2,-1,2.281,1,1,3.47,0,3.142,0.35,-0.15,-1,2,1.58820020817359,0.0171437647787357,-0.0118274557331599,0.00678447102572528,0.00931803774530438,1.12808128358128,-0.522200163258382,-0.00572588876926139,0.0187276332697265,-0.747908271799778
10,self,8,60,0.5,2.565,2,-1,6.674,1,-2,3.272,0,2.527,0.4,-0.1,-1,-1,1.58820020817359,0.0171437647787357,-0.0118274557331599,0.00678447102572528,-0.0186360754906088,1.28923575266431,-0.870333605430637,-0.00572588876926139,-0.00936381663486326,-0.498605514533185
10,self,9,90,0.5,1.509,4,-3,2.964,1,1,2.748,0,2.029,0.1,-0.4,-3,4,1.58820020817359,0.0342875295574715,-0.0354823671994798,0.00678447102572528,0.00931803774530438,0.322308938166079,1.21846704760289,-0.0171776663077842,0.037455266539453,-1.99442205813274
10,self,10,80,0.5,8.61,1,1,7.37,2,-2,3.035,0,2.064,0.2,-0.3,1,-3,1.58820020817359,0.00857188238936787,0.0118274557331599,0.0135689420514506,-0.0186360754906088,0.644617876332157,0.522200163258382,0.00572588876926139,-0.0280914499045898,-1.49581654359956
10,self,11,60,0.5,1.566,-1,-5,3.979,3,2,1.227,0,2.69,0.4,-0.1,4,7,1.58820020817359,-0.00857188238936787,-0.0591372786657997,0.0203534130771758,0.0186360754906088,1.28923575266431,-0.870333605430637,0.0229035550770456,0.0655467164440428,-0.498605514533185
10,self,12,95,0.5,1.797,4,-2,4.127,-1,-1,2.274,0,10.797,0.05,-0.45,-5,1,1.58820020817359,0.0342875295574715,-0.0236549114663199,-0.00678447102572528,-0.00931803774530438,0.161154469083039,1.56660048977515,-0.028629443846307,0.00936381663486326,-2.24372481539933
10,self,13,75,0.45,1.533,-2,-1,2.731,-2,3,3.311,0,2.428,0.25,-0.2,0,4,1.42938018735623,-0.0171437647787357,-0.0118274557331599,-0.0135689420514506,0.0279541132359131,0.805772345415196,0.174066721086127,0,0.037455266539453,-0.997211029066371
10,self,14,95,0.5,1.739,4,-3,2.638,-3,-1,2.035,0,1.676,0.05,-0.45,-7,2,1.58820020817359,0.0342875295574715,-0.0354823671994798,-0.0203534130771758,-0.00931803774530438,0.161154469083039,1.56660048977515,-0.0400812213848298,0.0187276332697265,-2.24372481539933
10,self,15,50,0.5,2.606,2,-1,17.14,0,1,3.11,0,2.415,0.5,0,-2,2,1.58820020817359,0.0171437647787357,-0.0118274557331599,0,0.00931803774530438,1.61154469083039,-1.56660048977515,-0.0114517775385228,0.0187276332697265,0
10,self,16,90,0.5,2.076,1,0,4.504,3,0,2.267,0,3.605,0.1,-0.4,2,0,1.58820020817359,0.00857188238936787,0,0.0203534130771758,0,0.322308938166079,1.21846704760289,0.0114517775385228,0,-1.99442205813274
10,self,17,55,0.5,2.27,2,-1,28.14,0,-2,4.183,0,2.786,0.45,-0.05,-2,-1,1.58820020817359,0.0171437647787357,-0.0118274557331599,0,-0.0186360754906088,1.45039022174735,-1.21846704760289,-0.0114517775385228,-0.00936381663486326,-0.249302757266593
10,self,18,70,0.5,1.801,1,-2,3.091,1,2,2.659,0,3.924,0.3,-0.2,0,4,1.58820020817359,0.00857188238936787,-0.0236549114663199,0.00678447102572528,0.0186360754906088,0.966926814498236,-0.174066721086127,0,0.037455266539453,-0.997211029066371
10,self,19,50,0.5,1.392,0,3,1.817,3,5,2.966,0,2.651,0.5,0,3,2,1.58820020817359,0,0.0354823671994798,0.0203534130771758,0.0465901887265219,1.61154469083039,-1.56660048977515,0.0171776663077842,0.0187276332697265,0
10,self,20,70,0.5,9.4,1,0,5.363,1,-2,3.002,0,2.361,0.3,-0.2,0,-2,1.58820020817359,0.00857188238936787,0,0.00678447102572528,-0.0186360754906088,0.966926814498236,-0.174066721086127,0,-0.0187276332697265,-0.997211029066371
11,self,1,50,0.5,9.887,2,2,6.366,0,0,5.977,0,5.658,0.5,0,-2,-2,1.58820020817359,0.0171437647787357,0.0236549114663199,0,0,1.61154469083039,-1.56660048977515,-0.0114517775385228,-0.0187276332697265,0
11,self,2,85,0.5,5.189,0,-2,3.448,3,2,4.24,0,1.685,0.15,-0.35,3,4,1.58820020817359,0,-0.0236549114663199,0.0203534130771758,0.0186360754906088,0.483463407249118,0.870333605430637,0.0171776663077842,0.037455266539453,-1.74511930086615
11,self,3,90,0.5,2.071,1,-3,2.672,4,-1,3.212,0,3.137,0.1,-0.4,3,2,1.58820020817359,0.00857188238936787,-0.0354823671994798,0.0271378841029011,-0.00931803774530438,0.322308938166079,1.21846704760289,0.0171776663077842,0.0187276332697265,-1.99442205813274
11,self,4,90,0.5,2.502,1,-2,13.883,-1,-3,5.731,0,1.732,0.1,-0.4,-2,-1,1.58820020817359,0.00857188238936787,-0.0236549114663199,-0.00678447102572528,-0.0279541132359131,0.322308938166079,1.21846704760289,-0.0114517775385228,-0.00936381663486326,-1.99442205813274
11,self,5,75,0.5,3.136,0,0,5.247,2,1,4.115,0,2.477,0.25,-0.25,2,1,1.58820020817359,0,0,0.0135689420514506,0.00931803774530438,0.805772345415196,0.174066721086127,0.0114517775385228,0.00936381663486326,-1.24651378633296
11,self,6,95,0.5,3.725,-1,-4,9.523,-4,-1,5.416,0,2.779,0.05,-0.45,-3,3,1.58820020817359,-0.00857188238936787,-0.0473098229326398,-0.0271378841029011,-0.00931803774530438,0.161154469083039,1.56660048977515,-0.0171776663077842,0.0280914499045898,-2.24372481539933
11,self,7,50,0.5,9.151,2,-2,5.95,0,1,3.108,0,2.916,0.5,0,-2,3,1.58820020817359,0.0171437647787357,-0.0236549114663199,0,0.00931803774530438,1.61154469083039,-1.56660048977515,-0.0114517775385228,0.0280914499045898,0
11,self,8,70,0.5,1.254,1,0,2.713,1,0,3.283,0,1.753,0.3,-0.2,0,0,1.58820020817359,0.00857188238936787,0,0.00678447102572528,0,0.966926814498236,-0.174066721086127,0,0,-0.997211029066371
11,self,9,95,0.5,2.021,3,-3,3.42,-1,-4,2.303,0,2.128,0.05,-0.45,-4,-1,1.58820020817359,0.0257156471681036,-0.0354823671994798,-0.00678447102572528,-0.0372721509812175,0.161154469083039,1.56660048977515,-0.0229035550770456,-0.00936381663486326,-2.24372481539933
11,self,10,85,0.5,10.028,1,0,5.941,0,-3,3.572,0,1.314,0.15,-0.35,-1,-3,1.58820020817359,0.00857188238936787,0,0,-0.0279541132359131,0.483463407249118,0.870333605430637,-0.00572588876926139,-0.0280914499045898,-1.74511930086615
11,self,11,80,0.5,1.772,-2,-1,1.552,3,1,4.091,0,2.056,0.2,-0.3,5,2,1.58820020817359,-0.0171437647787357,-0.0118274557331599,0.0203534130771758,0.00931803774530438,0.644617876332157,0.522200163258382,0.028629443846307,0.0187276332697265,-1.49581654359956
11,self,12,55,0.45,1.743,1,-2,1.753,2,0,2.514,0,13.099,0.45,0,1,2,1.42938018735623,0.00857188238936787,-0.0236549114663199,0.0135689420514506,0,1.45039022174735,-1.21846704760289,0.00572588876926139,0.0187276332697265,0
11,self,13,55,0.5,1.631,-1,1,3.316,1,3,2.632,0,1.879,0.45,-0.05,2,2,1.58820020817359,-0.00857188238936787,0.0118274557331599,0.00678447102572528,0.0279541132359131,1.45039022174735,-1.21846704760289,0.0114517775385228,0.0187276332697265,-0.249302757266593
11,self,14,60,0.5,2.346,2,1,2.492,-4,-3,2.073,0,1.266,0.4,-0.1,-6,-4,1.58820020817359,0.0171437647787357,0.0118274557331599,-0.0271378841029011,-0.0279541132359131,1.28923575266431,-0.870333605430637,-0.0343553326155684,-0.037455266539453,-0.498605514533185
11,self,15,70,0.5,2.676,1,-1,14.239,1,0,3.172,0,3.332,0.3,-0.2,0,1,1.58820020817359,0.00857188238936787,-0.0118274557331599,0.00678447102572528,0,0.966926814498236,-0.174066721086127,0,0.00936381663486326,-0.997211029066371
11,self,16,65,0.5,1.569,-1,0,3.074,0,0,7.321,0,2.125,0.35,-0.15,1,0,1.58820020817359,-0.00857188238936787,0,0,0,1.12808128358128,-0.522200163258382,0.00572588876926139,0,-0.747908271799778
11,self,17,65,0.5,2.304,0,-2,29.436,-1,1,3.751,0,1.834,0.35,-0.15,-1,3,1.58820020817359,0,-0.0236549114663199,-0.00678447102572528,0.00931803774530438,1.12808128358128,-0.522200163258382,-0.00572588876926139,0.0280914499045898,-0.747908271799778
11,self,18,75,0.5,1.752,-1,1,3.991,1,-1,2.929,0,3.29,0.25,-0.25,2,-2,1.58820020817359,-0.00857188238936787,0.0118274557331599,0.00678447102572528,-0.00931803774530438,0.805772345415196,0.174066721086127,0.0114517775385228,-0.0187276332697265,-1.24651378633296
11,self,19,60,0.5,1.145,-1,-2,2.997,3,1,2.803,0,1.756,0.4,-0.1,4,3,1.58820020817359,-0.00857188238936787,-0.0236549114663199,0.0203534130771758,0.00931803774530438,1.28923575266431,-0.870333605430637,0.0229035550770456,0.0280914499045898,-0.498605514533185
11,self,20,80,0.5,10.433,-3,4,5.853,0,-2,3.15,0,1.351,0.2,-0.3,3,-6,1.58820020817359,-0.0257156471681036,0.0473098229326398,0,-0.0186360754906088,0.644617876332157,0.522200163258382,0.0171776663077842,-0.0561828998091796,-1.49581654359956
12,self,1,80,0.2,11.772,-86,-66,10.156,-92,41,14.786,0,5.688,0.2,0,-6,107,0.635280083269436,-0.737181885485636,-0.780612078388556,-0.624171334366726,0.382039547557479,0.644617876332157,0.522200163258382,-0.0343553326155684,1.00192837993037,0
12,self,2,55,0.4,19.262,25,23,10.743,60,-35,13.102,0,3.331,0.45,0.05,35,-58,1.27056016653887,0.214297059734197,0.272031481862679,0.407068261543517,-0.326131321085653,1.45039022174735,-1.21846704760289,0.200406106924149,-0.543101364822069,0.249302757266593
12,self,3,90,0.2,13.386,-94,17,9.081,-149,48,19.156,0,3.393,0.1,-0.1,-55,31,0.635280083269436,-0.805756944600579,0.201066747463719,-1.01088618283307,0.44726581177461,0.322308938166079,1.21846704760289,-0.314923882309377,0.290278315680761,-0.498605514533185
12,self,4,50,0.35,7.354,0,-56,5.905,180,55,9.7,0,3.276,0.5,0.15,180,111,1.11174014572151,0,-0.662337521056957,1.22120478463055,0.512492075991741,1.61154469083039,-1.56660048977515,1.03065997846705,1.03938364646982,0.747908271799778
12,self,5,65,0.45,5.789,63,-20,7.056,-58,-9,10.146,0,3.271,0.35,-0.1,-121,11,1.42938018735623,0.540028590530175,-0.236549114663199,-0.393499319492066,-0.0838623397077394,1.12808128358128,-0.522200163258382,-0.692832541080629,0.103001982983496,-0.498605514533185
12,self,6,70,0.25,6.264,-68,-30,6.675,-83,-25,7.359,0,3.279,0.3,0.05,-15,5,0.794100104086795,-0.582888002477015,-0.354823671994798,-0.563111095135198,-0.232950943632609,0.966926814498236,-0.174066721086127,-0.0858883315389209,0.0468190831743163,0.249302757266593
12,self,7,60,0.15,4.976,-97,-66,9.671,90,27,7.122,0,3.124,0.4,0.25,187,93,0.476460062452077,-0.831472591768683,-0.780612078388556,0.610602392315275,0.251587019123218,1.28923575266431,-0.870333605430637,1.07074119985188,0.870834947042283,1.24651378633296
12,self,8,95,0.3,5.789,2,-31,6.815,-176,-31,8.395,0,3.123,0.05,-0.25,-178,0,0.952920124904154,0.0171437647787357,-0.366651127727958,-1.19406690052765,-0.288859170104436,0.161154469083039,1.56660048977515,-1.01920820092853,0,-1.24651378633296
12,self,9,90,0.45,7.188,4,-22,6.935,-131,-26,5.212,0,2.979,0.1,-0.35,-135,-4,1.42938018735623,0.0342875295574715,-0.260204026129519,-0.888765704370011,-0.242268981377914,0.322308938166079,1.21846704760289,-0.772994983850288,-0.037455266539453,-1.74511930086615
12,self,10,80,0.15,6.614,-62,-69,7.857,-97,-23,5.878,0,2.997,0.2,0.05,-35,46,0.476460062452077,-0.531456708140808,-0.816094445588036,-0.658093689495352,-0.214314868142001,0.644617876332157,0.522200163258382,-0.200406106924149,0.43073556520371,0.249302757266593
12,self,11,70,0.1,9.324,-38,-91,10.652,2,-62,6.753,0,3.127,0.3,0.2,40,29,0.317640041634718,-0.325731530795979,-1.07629847171755,0.0135689420514506,-0.577718340208871,0.966926814498236,-0.174066721086127,0.229035550770456,0.271550682411035,0.99721102906637
12,self,12,75,0.25,5.961,0,-49,8.498,-48,-76,9.966,0,2.626,0.25,0,-48,-27,0.794100104086795,0,-0.579545330924837,-0.325654609234813,-0.708170868643133,0.805772345415196,0.174066721086127,-0.274842660924547,-0.252823049141308,0
12,self,13,60,0.3,89.137,1,-83,4.904,63,-99,5.55,0,3.355,0.4,0.1,62,-16,0.952920124904154,0.00857188238936787,-0.981678825852275,0.427421674620693,-0.922485736785133,1.28923575266431,-0.870333605430637,0.355005103694206,-0.149821066157812,0.498605514533185
12,self,14,65,0.15,6.316,2,-79,16.281,-44,-83,7.242,0,3.408,0.35,0.2,-46,-4,0.476460062452077,0.0171437647787357,-0.934369002919635,-0.298516725131912,-0.773397132860263,1.12808128358128,-0.522200163258382,-0.263390883386024,-0.037455266539453,0.99721102906637
12,self,15,50,0.45,5.455,98,-46,6.678,192,126,5.472,0,3.443,0.5,0.05,94,172,1.42938018735623,0.840044474158051,-0.544062963725357,1.30261843693925,1.17407275590835,1.61154469083039,-1.56660048977515,0.538233544310571,1.61057646119648,0.249302757266593
12,self,16,95,0.2,4.569,-48,-105,5.39,-205,104,5.437,0,2.781,0.05,-0.15,-157,209,0.635280083269436,-0.411450354689658,-1.24188285198179,-1.39081656027368,0.969075925511655,0.161154469083039,1.56660048977515,-0.898964536774039,1.95703767668642,-0.747908271799778
12,self,17,55,0.3,4.486,2,-103,10.028,133,-24,5.753,0,2.972,0.45,0.15,131,79,0.952920124904154,0.0171437647787357,-1.21822794051547,0.902334646421462,-0.223632905887305,1.45039022174735,-1.21846704760289,0.750091428773243,0.739741514154198,0.747908271799778
12,self,18,85,0.15,4.518,-55,-69,4.698,-116,-87,7.033,0,3.131,0.15,0,-61,-18,0.476460062452077,-0.471453531415233,-0.816094445588036,-0.786998638984132,-0.810669283841481,0.483463407249118,0.870333605430637,-0.349279214924945,-0.168548699427539,0
12,self,19,85,0.5,4.412,20,-111,5.935,-189,56,5.276,0,3.093,0.15,-0.35,-209,167,1.58820020817359,0.171437647787357,-1.31284758638075,-1.28226502386208,0.521810113737045,0.483463407249118,0.870333605430637,-1.19671075277563,1.56375737802216,-1.74511930086615
12,self,20,75,0.25,6.758,-51,-120,4.711,-58,-36,6.595,0,3.444,0.25,0,-7,84,0.794100104086795,-0.437166001857761,-1.41929468797919,-0.393499319492066,-0.335449358830958,0.805772345415196,0.174066721086127,-0.0400812213848298,0.786560597328514,0
14,self,1,65,0.35,5.682,2,0,3.805,-172,-171,8.034,1,3.674,0.35,0,-174,-171,1.11174014572151,0.0171437647787357,0,-1.16692901642475,-1.59338445444705,1.12808128358128,-0.522200163258382,-0.996304645851482,-1.60121264456162,0
14,self,2,90,0.5,1.171,146,175,2.417,-219,-222,6.029,1,3.002,0.1,-0.4,-365,-397,1.58820020817359,1.25149482884771,2.06980475330299,-1.48579915463384,-2.06860437945757,0.322308938166079,1.21846704760289,-2.08994940078041,-3.71743520404072,-1.99442205813274
14,self,3,55,0.5,1.2,110,84,4.374,107,156,7.009,0,4.196,0.45,-0.05,-3,72,1.58820020817359,0.942907062830465,0.993506281585435,0.725938399752605,1.45361388826748,1.45039022174735,-1.21846704760289,-0.0171776663077842,0.674194797710155,-0.249302757266593
14,self,4,95,0.5,1.199,34,72,4.097,-220,-215,6.03,1,2.608,0.05,-0.45,-254,-287,1.58820020817359,0.291444001238507,0.851576812787516,-1.49258362565956,-2.00337811524044,0.161154469083039,1.56660048977515,-1.45437574739239,-2.68741537420576,-2.24372481539933
14,self,5,85,0.5,1.272,128,79,3.336,-214,-180,3.235,1,2.904,0.15,-0.35,-342,-259,1.58820020817359,1.09720094583909,0.934369002919635,-1.45187679950521,-1.67724679415479,0.483463407249118,0.870333605430637,-1.9582539590874,-2.42522850842958,-1.74511930086615
14,self,6,55,0.5,1.033,138,52,3.678,161,126,3.924,0,2.337,0.45,-0.05,23,74,1.58820020817359,1.18291976973277,0.615027698124317,1.09229983514177,1.17407275590835,1.45039022174735,-1.21846704760289,0.131695441693012,0.692922430979881,-0.249302757266593
14,self,7,60,0.5,1.375,27,27,2.821,66,86,4.608,0,2.475,0.4,-0.1,39,59,1.58820020817359,0.231440824512932,0.319341304795318,0.447775087697868,0.801351246096176,1.28923575266431,-0.870333605430637,0.223309662001194,0.552465181456932,-0.498605514533185
14,self,8,70,0.5,0.781,28,24,2.794,2,-2,3.776,1,3.288,0.3,-0.2,-26,-26,1.58820020817359,0.2400127069023,0.283858937595839,0.0135689420514506,-0.0186360754906088,0.966926814498236,-0.174066721086127,-0.148873108000796,-0.243459232506445,-0.997211029066371
14,self,9,60,0.5,1.133,3,0,4.071,70,100,3.793,0,2.675,0.4,-0.1,67,100,1.58820020817359,0.0257156471681036,0,0.47491297180077,0.931803774530438,1.28923575266431,-0.870333605430637,0.383634547540513,0.936381663486326,-0.498605514533185
14,self,10,90,0.5,1.329,39,18,3.297,-201,-186,2.907,1,2.259,0.1,-0.4,-240,-204,1.58820020817359,0.334303413185347,0.212894203196879,-1.36367867617078,-1.73315502062661,0.322308938166079,1.21846704760289,-1.37421330462273,-1.91021859351211,-1.99442205813274
14,self,11,50,0.5,1.33,80,55,2.827,175,223,3.528,0,2.846,0.5,0,95,168,1.58820020817359,0.685750591149429,0.650510065323797,1.18728242950192,2.07792241720288,1.61154469083039,-1.56660048977515,0.543959433079832,1.57312119465703,0
14,self,12,80,0.5,1.05,23,27,2.893,-222,-206,2.657,1,2.111,0.2,-0.3,-245,-233,1.58820020817359,0.197153294955461,0.319341304795318,-1.50615256771101,-1.9195157755327,0.644617876332157,0.522200163258382,-1.40284274846904,-2.18176927592314,-1.49581654359956
14,self,13,50,0.5,1.267,2,2,3.264,220,230,3.573,0,3.663,0.5,0,218,228,1.58820020817359,0.0171437647787357,0.0236549114663199,1.49258362565956,2.14314868142001,1.61154469083039,-1.56660048977515,1.24824375169898,2.13495019274882,0
14,self,14,75,0.5,0.846,2,4,3.085,-169,-116,3.007,1,2.482,0.25,-0.25,-171,-120,1.58820020817359,0.0171437647787357,0.0473098229326398,-1.14657560334757,-1.08089237845531,0.805772345415196,0.174066721086127,-0.979126979543698,-1.12365799618359,-1.24651378633296
14,self,15,75,0.5,1.328,4,3,3.238,-183,-167,2.657,1,2.139,0.25,-0.25,-187,-170,1.58820020817359,0.0342875295574715,0.0354823671994798,-1.24155819770773,-1.55611230346583,0.805772345415196,0.174066721086127,-1.07074119985188,-1.59184882792675,-1.24651378633296
14,self,16,80,0.5,0.882,69,36,3.162,-170,-189,2.611,1,2.631,0.2,-0.3,-239,-225,1.58820020817359,0.591459884866383,0.425788406393758,-1.1533600743733,-1.76110913386253,0.644617876332157,0.522200163258382,-1.36848741585347,-2.10685874284423,-1.49581654359956
14,self,17,85,0.5,1.047,23,15,2.74,-201,-163,2.854,1,2.446,0.15,-0.35,-224,-178,1.58820020817359,0.197153294955461,0.177411835997399,-1.36367867617078,-1.51884015248461,0.483463407249118,0.870333605430637,-1.28259908431455,-1.66675936100566,-1.74511930086615
14,self,18,95,0.5,0.845,76,40,2.862,-223,-225,2.67,1,2.264,0.05,-0.45,-299,-265,1.58820020817359,0.651463061591958,0.473098229326398,-1.51293703873674,-2.09655849269348,0.161154469083039,1.56660048977515,-1.71204074200916,-2.48141140823876,-2.24372481539933
14,self,19,70,0.5,1.335,5,1,3.195,-68,-59,3.343,1,3.443,0.3,-0.2,-73,-60,1.58820020817359,0.0428594119468393,0.0118274557331599,-0.461344029749319,-0.549764226972958,0.966926814498236,-0.174066721086127,-0.417989880156082,-0.561828998091796,-0.997211029066371
14,self,20,65,0.5,1.604,18,14,3.577,-53,-44,3.424,1,2.272,0.35,-0.15,-71,-58,1.58820020817359,0.154293883008622,0.165584380264239,-0.35957696436344,-0.409993660793393,1.12808128358128,-0.522200163258382,-0.406538102617559,-0.543101364822069,-0.747908271799778
15,self,1,95,0.3,4.705,-52,-3,9.377,-243,93,4.819,0,3.346,0.05,-0.25,-191,96,0.952920124904154,-0.445737884247129,-0.0354823671994798,-1.64862645925124,0.866577510313307,0.161154469083039,1.56660048977515,-1.09364475492893,0.898926396946873,-1.24651378633296
15,self,2,80,0.2,1.928,-9,0,3.096,-25,8,4.067,0,2.854,0.2,0,-16,8,0.635280083269436,-0.0771469415043108,0,-0.169611775643132,0.074544301962435,0.644617876332157,0.522200163258382,-0.0916142203081823,0.0749105330789061,0
15,self,3,85,0.25,1.98,-64,16,2.208,-85,7,3.605,0,2.577,0.15,-0.1,-21,-9,0.794100104086795,-0.548600472919543,0.189239291730559,-0.576680037186649,0.0652262642171306,0.483463407249118,0.870333605430637,-0.120243664154489,-0.0842743497137694,-0.498605514533185
15,self,4,80,0.3,2.117,-63,0,2.193,-15,-5,3.139,0,1.763,0.2,-0.1,48,-5,0.952920124904154,-0.540028590530175,0,-0.101767065385879,-0.0465901887265219,0.644617876332157,0.522200163258382,0.274842660924547,-0.0468190831743163,-0.498605514533185
15,self,5,95,0.3,1.683,-87,1,2.427,-96,-19,3.297,0,1.85,0.05,-0.25,-9,-20,0.952920124904154,-0.745753767875004,0.0118274557331599,-0.651309218469627,-0.177042717160783,0.161154469083039,1.56660048977515,-0.0515329989233525,-0.187276332697265,-1.24651378633296
15,self,6,90,0.25,1.723,-84,-4,2.626,-56,-4,2.796,0,1.986,0.1,-0.15,28,0,0.794100104086795,-0.720038120706901,-0.0473098229326398,-0.379930377440616,-0.0372721509812175,0.322308938166079,1.21846704760289,0.160324885539319,0,-0.747908271799778
15,self,7,50,0.3,1.702,-79,-11,2.085,233,228,3.619,0,2.247,0.5,0.2,312,239,0.952920124904154,-0.677178708760061,-0.130102013064759,1.58078174899399,2.1245126059294,1.61154469083039,-1.56660048977515,1.78647729600955,2.23795217573232,0.997211029066371
15,self,8,65,0.2,1.596,-61,0,1.783,39,-12,3.025,0,2.014,0.35,0.15,100,-12,0.635280083269436,-0.52288482575144,0,0.264594370003286,-0.111816452943653,1.12808128358128,-0.522200163258382,0.572588876926139,-0.112365799618359,0.747908271799778
15,self,9,70,0.25,1.744,-17,-8,2.347,44,-3,2.115,0,1.73,0.3,0.05,61,5,0.794100104086795,-0.145722000619254,-0.0946196458652795,0.298516725131912,-0.0279541132359131,0.966926814498236,-0.174066721086127,0.349279214924945,0.0468190831743163,0.249302757266593
15,self,10,70,0.25,1.466,-37,1,2.269,51,-3,2.359,0,1.758,0.3,0.05,88,-4,0.794100104086795,-0.317159648406611,0.0118274557331599,0.346008022311989,-0.0279541132359131,0.966926814498236,-0.174066721086127,0.503878211695003,-0.037455266539453,0.249302757266593
15,self,11,65,0.25,2.227,-72,-13,1.936,87,9,2.984,0,2.403,0.35,0.1,159,22,0.794100104086795,-0.617175532034486,-0.153756924531079,0.590248979238099,0.0838623397077394,1.12808128358128,-0.522200163258382,0.910416314312562,0.206003965966992,0.498605514533185
15,self,12,55,0.3,2.286,-83,5,1.855,175,172,2.431,0,2.119,0.45,0.15,258,167,0.952920124904154,-0.711466238317533,0.0591372786657997,1.18728242950192,1.60270249219235,1.45039022174735,-1.21846704760289,1.47727930246944,1.56375737802216,0.747908271799778
15,self,13,55,0.3,22.1,-107,-9,177.618,104,39,2.069,0,1.45,0.45,0.15,211,48,0.952920124904154,-0.917191415662362,-0.106447101598439,0.705584986675429,0.363403472066871,1.45039022174735,-1.21846704760289,1.20816253031415,0.449463198473437,0.747908271799778
15,self,14,90,0.25,1.884,-95,-29,2.11,-157,-3,2.096,0,1.955,0.1,-0.15,-62,26,0.794100104086795,-0.814328826989947,-0.342996216261638,-1.06516195103887,-0.0279541132359131,0.322308938166079,1.21846704760289,-0.355005103694206,0.243459232506445,-0.747908271799778
15,self,15,50,0.35,1.652,-55,25,1.804,228,212,2.857,0,1.804,0.5,0.15,283,187,1.11174014572151,-0.471453531415233,0.295686393328999,1.54685939386536,1.97542400200453,1.61154469083039,-1.56660048977515,1.62042652170097,1.75103371071943,0.747908271799778
15,self,16,75,0.3,2.005,-73,47,3.235,28,35,3.462,0,1.799,0.25,-0.05,101,-12,0.952920124904154,-0.625747414423854,0.555890419458517,0.189965188720308,0.326131321085653,0.805772345415196,0.174066721086127,0.578314765695401,-0.112365799618359,-0.249302757266593
15,self,17,60,0.35,1.962,-56,7,1.741,137,99,3.264,0,1.928,0.4,0.05,193,92,1.11174014572151,-0.4800254138046,0.0827921901321196,0.929472530524363,0.922485736785133,1.28923575266431,-0.870333605430637,1.10509653246745,0.86147113040742,0.249302757266593
15,self,18,85,0.25,1.292,-79,12,3.748,-24,0,2.389,0,2.148,0.15,-0.1,55,-12,0.794100104086795,-0.677178708760061,0.141929468797919,-0.162827304617407,0,0.483463407249118,0.870333605430637,0.314923882309377,-0.112365799618359,-0.498605514533185
15,self,19,75,0.3,2.532,-44,-4,1.927,75,39,2.023,0,1.285,0.25,-0.05,119,43,0.952920124904154,-0.377162825132186,-0.0473098229326398,0.508835326929396,0.363403472066871,0.805772345415196,0.174066721086127,0.681380763542106,0.40264411529912,-0.249302757266593
15,self,20,60,0.2,3.439,-96,5,1.707,84,43,2.077,0,1.556,0.4,0.2,180,38,0.635280083269436,-0.822900709379315,0.0591372786657997,0.569895566160923,0.400675623048088,1.28923575266431,-0.870333605430637,1.03065997846705,0.355825032124804,0.997211029066371
16,self,1,55,0.45,4.819,87,-79,5.368,120,-28,12.439,0,2.698,0.45,0,33,51,1.42938018735623,0.745753767875004,-0.934369002919635,0.814136523087033,-0.260905056868523,1.45039022174735,-1.21846704760289,0.188954329385626,0.477554648378026,0
16,self,2,60,0.1,5.476,-158,30,6.264,64,23,4.721,0,2.027,0.4,0.3,222,-7,0.317640041634718,-1.35435741752012,0.354823671994798,0.434206145646418,0.214314868142001,1.28923575266431,-0.870333605430637,1.27114730677603,-0.0655467164440428,1.49581654359956
16,self,3,95,0.2,2.701,-79,0,3.275,-114,44,8.08,1,2.45,0.05,-0.15,-35,44,0.635280083269436,-0.677178708760061,0,-0.773429696932682,0.409993660793393,0.161154469083039,1.56660048977515,-0.200406106924149,0.412007931933984,-0.747908271799778
16,self,4,60,0.1,4.128,-91,50,6.786,19,4,4.481,0,2.323,0.4,0.3,110,-46,0.317640041634718,-0.780041297432476,0.591372786657997,0.12890494948878,0.0372721509812175,1.28923575266431,-0.870333605430637,0.629847764618753,-0.43073556520371,1.49581654359956
16,self,5,85,0.05,4.505,-126,17,10.294,-82,37,7.138,1,2.316,0.15,0.1,44,20,0.158820020817359,-1.08005718106035,0.201066747463719,-0.556326624109473,0.344767396576262,0.483463407249118,0.870333605430637,0.251939105847501,0.187276332697265,0.498605514533185
16,self,6,80,0,5.582,-169,-2,3.819,-104,1,8.372,1,2.336,0.2,0.2,65,3,0,-1.44864812380317,-0.0236549114663199,-0.705584986675429,0.00931803774530438,0.644617876332157,0.522200163258382,0.372182770001991,0.0280914499045898,0.997211029066371
16,self,7,70,0.3,3.211,21,4,3.444,22,2,4.099,1,2.865,0.3,0,1,-2,0.952920124904154,0.180009530176725,0.0473098229326398,0.149258362565956,0.0186360754906088,0.966926814498236,-0.174066721086127,0.00572588876926139,-0.0187276332697265,0
16,self,8,75,0.1,6.584,-71,-2,3.966,-19,1,3.813,1,2.217,0.25,0.15,52,3,0.317640041634718,-0.608603649645118,-0.0236549114663199,-0.12890494948878,0.00931803774530438,0.805772345415196,0.174066721086127,0.297746216001592,0.0280914499045898,0.747908271799778
16,self,9,65,0.5,5.122,-11,2,3.804,-108,-2,4.258,1,2.482,0.35,-0.15,-97,-4,1.58820020817359,-0.0942907062830465,0.0236549114663199,-0.73272287077833,-0.0186360754906088,1.12808128358128,-0.522200163258382,-0.555411210618355,-0.037455266539453,-0.747908271799778
16,self,10,80,0.4,4.048,-3,-2,3.707,-96,2,7.062,1,2.653,0.2,-0.2,-93,4,1.27056016653887,-0.0257156471681036,-0.0236549114663199,-0.651309218469627,0.0186360754906088,0.644617876332157,0.522200163258382,-0.53250765554131,0.037455266539453,-0.997211029066371
16,self,11,95,0,2.547,-74,2,3.384,-4,-3,5.202,1,2.494,0.05,0.05,70,-5,0,-0.634319296813222,0.0236549114663199,-0.0271378841029011,-0.0279541132359131,0.161154469083039,1.56660048977515,0.400812213848298,-0.0468190831743163,0.249302757266593
16,self,12,50,0.45,3.454,0,-1,3.172,54,-2,5.438,0,1.97,0.5,0.05,54,-1,1.42938018735623,0,-0.0118274557331599,0.366361435389165,-0.0186360754906088,1.61154469083039,-1.56660048977515,0.309197993540115,-0.00936381663486326,0.249302757266593
16,self,13,70,0.05,3.185,-69,0,3.61,7,-3,4.913,1,2.369,0.3,0.25,76,-3,0.158820020817359,-0.591459884866383,0,0.0474912971800769,-0.0279541132359131,0.966926814498236,-0.174066721086127,0.435167546463866,-0.0280914499045898,1.24651378633296
16,self,14,55,0.1,3.269,-29,-2,3.649,8,-3,5.548,0,2.585,0.45,0.35,37,-1,0.317640041634718,-0.248584589291668,-0.0236549114663199,0.0542757682058022,-0.0279541132359131,1.45039022174735,-1.21846704760289,0.211857884462672,-0.00936381663486326,1.74511930086615
16,self,15,90,0.05,6.908,-89,27,4.363,-90,2,6.698,1,2.536,0.1,0.05,-1,-25,0.158820020817359,-0.76289753265374,0.319341304795318,-0.610602392315275,0.0186360754906088,0.322308938166079,1.21846704760289,-0.00572588876926139,-0.234095415871582,0.249302757266593
16,self,16,85,0.1,7.091,-79,1,3.803,-57,0,4.062,1,2.633,0.15,0.05,22,-1,0.317640041634718,-0.677178708760061,0.0118274557331599,-0.386714848466341,0,0.483463407249118,0.870333605430637,0.125969552923751,-0.00936381663486326,0.249302757266593
16,self,17,75,0.1,7.483,-14,-1,3.248,18,-1,3.807,1,1.937,0.25,0.15,32,0,0.317640041634718,-0.12000635345115,-0.0118274557331599,0.122120478463055,-0.00931803774530438,0.805772345415196,0.174066721086127,0.183228440616365,0,0.747908271799778
16,self,18,65,0.05,3.274,-23,-1,2.912,59,20,3.677,1,2.313,0.35,0.3,82,21,0.158820020817359,-0.197153294955461,-0.0118274557331599,0.400283790517791,0.186360754906088,1.12808128358128,-0.522200163258382,0.469522879079434,0.196640149332129,1.49581654359956
16,self,19,50,0,2.808,-53,26,3.652,62,25,3.553,0,2.725,0.5,0.5,115,-1,0,-0.454309766636497,0.307513849062159,0.420637203594967,0.232950943632609,1.61154469083039,-1.56660048977515,0.65847720846506,-0.00936381663486326,2.49302757266593
16,self,20,90,0.05,3.298,-37,1,3.151,-107,55,4.911,1,2.231,0.1,0.05,-70,54,0.158820020817359,-0.317159648406611,0.0118274557331599,-0.725938399752605,0.512492075991741,0.322308938166079,1.21846704760289,-0.400812213848298,0.505646098282616,0.249302757266593
18,self,1,75,0.2,14.697,-206,-2,11.451,-156,-1,12.603,1,6.255,0.25,0.05,50,1,0.635280083269436,-1.76580777220978,-0.0236549114663199,-1.05837748001314,-0.00931803774530438,0.805772345415196,0.174066721086127,0.28629443846307,0.00936381663486326,0.249302757266593
18,self,2,70,0.45,12.768,160,-3,5.214,-45,0,15.059,1,6.297,0.3,-0.15,-205,3,1.42938018735623,1.37150118229886,-0.0354823671994798,-0.305301196157638,0,0.966926814498236,-0.174066721086127,-1.17380719769859,0.0280914499045898,-0.747908271799778
18,self,3,65,0.3,11.296,-131,4,10.715,-110,-1,9.473,1,4.013,0.35,0.05,21,-5,0.952920124904154,-1.12291659300719,0.0473098229326398,-0.746291812829781,-0.00931803774530438,1.12808128358128,-0.522200163258382,0.120243664154489,-0.0468190831743163,0.249302757266593
18,self,4,60,0.2,8.778,-194,-4,8.198,93,-2,6.68,0,3.125,0.4,0.2,287,2,0.635280083269436,-1.66294518353737,-0.0473098229326398,0.630955805392451,-0.0186360754906088,1.28923575266431,-0.870333605430637,1.64333007677802,0.0187276332697265,0.997211029066371
18,self,5,80,0.1,6.94,-232,2,4.19,-226,-2,4.957,1,3.625,0.2,0.1,6,-4,0.317640041634718,-1.98867671433334,0.0236549114663199,-1.53329045181391,-0.0186360754906088,0.644617876332157,0.522200163258382,0.0343553326155684,-0.037455266539453,0.498605514533185
18,self,6,90,0.1,6.304,-199,-1,3.856,-226,0,5.32,1,2.579,0.1,0,-27,1,0.317640041634718,-1.70580459548421,-0.0118274557331599,-1.53329045181391,0,0.322308938166079,1.21846704760289,-0.154598996770058,0.00936381663486326,0
18,self,7,50,0.2,5.658,-193,2,4.393,226,-5,4.237,0,4.803,0.5,0.3,419,-7,0.635280083269436,-1.654373301148,0.0236549114663199,1.53329045181391,-0.0465901887265219,1.61154469083039,-1.56660048977515,2.39914739432052,-0.0655467164440428,1.49581654359956
18,self,8,80,0.3,6.68,-117,-4,6.515,-217,-6,4.667,1,3.457,0.2,-0.1,-100,-2,0.952920124904154,-1.00291023955604,-0.0473098229326398,-1.47223021258239,-0.0559082264718263,0.644617876332157,0.522200163258382,-0.572588876926139,-0.0187276332697265,-0.498605514533185
18,self,9,85,0.2,5.088,-157,-7,8.422,-213,3,3.64,1,3.863,0.15,-0.05,-56,10,0.635280083269436,-1.34578553513075,-0.0827921901321196,-1.44509232847948,0.0279541132359131,0.483463407249118,0.870333605430637,-0.320649771078638,0.0936381663486326,-0.249302757266593
18,self,10,75,0.1,6.807,-230,-2,4.409,-227,-5,4.494,1,3.478,0.25,0.15,3,-3,0.317640041634718,-1.97153294955461,-0.0236549114663199,-1.54007492283964,-0.0465901887265219,0.805772345415196,0.174066721086127,0.0171776663077842,-0.0280914499045898,0.747908271799778
18,self,11,90,0.2,8.363,-219,-3,3.827,-230,7,4.053,1,4.198,0.1,-0.1,-11,10,0.635280083269436,-1.87724224327156,-0.0354823671994798,-1.56042833591681,0.0652262642171306,0.322308938166079,1.21846704760289,-0.0629847764618753,0.0936381663486326,-0.498605514533185
18,self,12,65,0.4,8.262,116,-1,7.244,-5,0,10.196,0,4.188,0.35,-0.05,-121,1,1.27056016653887,0.994338357166672,-0.0118274557331599,-0.0339223551286264,0,1.12808128358128,-0.522200163258382,-0.692832541080629,0.00936381663486326,-0.249302757266593
18,self,13,60,0.2,5.937,-198,4,3.908,226,-4,6.321,0,4.82,0.4,0.2,424,-8,0.635280083269436,-1.69723271309484,0.0473098229326398,1.53329045181391,-0.0372721509812175,1.28923575266431,-0.870333605430637,2.42777683816683,-0.0749105330789061,0.997211029066371
18,self,14,85,0.25,4.469,-136,1,7.231,-218,3,3.719,1,3.44,0.15,-0.1,-82,2,0.794100104086795,-1.16577600495403,0.0118274557331599,-1.47901468360811,0.0279541132359131,0.483463407249118,0.870333605430637,-0.469522879079434,0.0187276332697265,-0.498605514533185
18,self,15,95,0.3,8.883,-48,-4,6.344,-233,-2,4.026,1,3.327,0.05,-0.25,-185,2,0.952920124904154,-0.411450354689658,-0.0473098229326398,-1.58078174899399,-0.0186360754906088,0.161154469083039,1.56660048977515,-1.05928942231336,0.0187276332697265,-1.24651378633296
18,self,16,95,0.1,14.299,-204,0,4.192,-226,5,4.145,1,3.118,0.05,-0.05,-22,5,0.317640041634718,-1.74866400743104,0,-1.53329045181391,0.0465901887265219,0.161154469083039,1.56660048977515,-0.125969552923751,0.0468190831743163,-0.249302757266593
18,self,17,55,0.1,5.017,-208,-2,3.194,215,4,4.065,0,3.037,0.45,0.35,423,6,0.317640041634718,-1.78295153698852,-0.0236549114663199,1.45866127053093,0.0372721509812175,1.45039022174735,-1.21846704760289,2.42205094939757,0.0561828998091796,1.74511930086615
18,self,18,55,0.1,28.024,-187,1,3.963,220,0,5.3,0,3.597,0.45,0.35,407,-1,0.317640041634718,-1.60294200681179,0.0118274557331599,1.49258362565956,0,1.45039022174735,-1.21846704760289,2.33043672908939,-0.00936381663486326,1.74511930086615
18,self,19,50,0.1,3.962,-193,4,6.488,3,227,13.619,0,3.37,0.5,0.4,196,223,0.317640041634718,-1.654373301148,0.0473098229326398,0.0203534130771758,2.11519456818409,1.61154469083039,-1.56660048977515,1.12227419877523,2.08813110957451,1.99442205813274
18,self,20,70,0.1,3.93,-165,1,4.187,-174,5,4.821,1,3.011,0.3,0.2,-9,4,0.317640041634718,-1.4143605942457,0.0118274557331599,-1.1804979584762,0.0465901887265219,0.966926814498236,-0.174066721086127,-0.0515329989233525,0.037455266539453,0.99721102906637
19,self,1,55,0,3.355,-233,0,6.506,227,181,6.009,0,3.565,0.45,0.45,460,181,0,-1.99724859672271,0,1.54007492283964,1.68656483190009,1.45039022174735,-1.21846704760289,2.63390883386024,1.69485081091025,2.24372481539933
19,self,2,80,0.2,5.31,-1,3,5.169,-185,-43,5.763,1,4.568,0.2,0,-184,-46,0.635280083269436,-0.00857188238936787,0.0354823671994798,-1.25512713975918,-0.400675623048088,0.644617876332157,0.522200163258382,-1.0535635335441,-0.43073556520371,0
19,self,3,85,0.25,4.064,2,-8,3.25,-223,-2,3.83,1,2.256,0.15,-0.1,-225,6,0.794100104086795,0.0171437647787357,-0.0946196458652795,-1.51293703873674,-0.0186360754906088,0.483463407249118,0.870333605430637,-1.28832497308381,0.0561828998091796,-0.498605514533185
19,self,4,75,0.3,2.493,121,2,3.052,-171,1,3.582,1,2.911,0.25,-0.05,-292,-1,0.952920124904154,1.03719776911351,0.0236549114663199,-1.16014454539902,0.00931803774530438,0.805772345415196,0.174066721086127,-1.67195952062433,-0.00936381663486326,-0.249302757266593
19,self,5,95,0.35,2.191,121,-4,4.036,-239,0,3.647,1,3.403,0.05,-0.3,-360,4,1.11174014572151,1.03719776911351,-0.0473098229326398,-1.62148857514834,0,0.161154469083039,1.56660048977515,-2.0613199569341,0.037455266539453,-1.49581654359956
19,self,6,65,0,2.014,1,0,3.48,-111,-5,3.565,1,2.482,0.35,0.35,-112,-5,0,0.00857188238936787,0,-0.753076283855506,-0.0465901887265219,1.12808128358128,-0.522200163258382,-0.641299542157276,-0.0468190831743163,1.74511930086615
19,self,7,60,0.45,3.505,219,1,2.719,31,-1,3.669,0,2.173,0.4,-0.05,-188,-2,1.42938018735623,1.87724224327156,0.0118274557331599,0.210318601797484,-0.00931803774530438,1.28923575266431,-0.870333605430637,-1.07646708862114,-0.0187276332697265,-0.249302757266593
19,self,8,50,0.25,2.688,73,-3,3.359,246,-3,5.648,0,2.268,0.5,0.25,173,0,0.794100104086795,0.625747414423854,-0.0354823671994798,1.66897987232842,-0.0279541132359131,1.61154469083039,-1.56660048977515,0.990578757082221,0,1.24651378633296
19,self,9,55,0.4,2.059,180,1,2.535,35,-1,2.906,0,2.357,0.45,0.05,-145,-2,1.27056016653887,1.54293883008622,0.0118274557331599,0.237456485900385,-0.00931803774530438,1.45039022174735,-1.21846704760289,-0.830253871542902,-0.0187276332697265,0.249302757266593
19,self,10,85,0.5,4.421,111,-2,2.38,-238,2,3.796,1,2.169,0.15,-0.35,-349,4,1.58820020817359,0.951478945219833,-0.0236549114663199,-1.61470410412262,0.0186360754906088,0.483463407249118,0.870333605430637,-1.99833518047223,0.037455266539453,-1.74511930086615
19,self,11,50,0.25,2.665,-3,4,2.577,243,-2,3.506,0,2.014,0.5,0.25,246,-6,0.794100104086795,-0.0257156471681036,0.0473098229326398,1.64862645925124,-0.0186360754906088,1.61154469083039,-1.56660048977515,1.4085686372383,-0.0561828998091796,1.24651378633296
19,self,12,70,0.25,655.549,0,3,5.066,-122,3,3.166,0,1.924,0.3,0.05,-122,0,0.794100104086795,0,0.0354823671994798,-0.827705465138484,0.0279541132359131,0.966926814498236,-0.174066721086127,-0.69855842984989,0,0.249302757266593
19,self,13,70,0.35,2.559,0,0,2.453,-1,4,19.098,0,5.428,0.3,-0.05,-1,4,1.11174014572151,0,0,-0.00678447102572528,0.0372721509812175,0.966926814498236,-0.174066721086127,-0.00572588876926139,0.037455266539453,-0.249302757266593
19,self,14,65,0.4,38.01,5,1,8.762,-148,0,5.574,0,3.164,0.35,-0.05,-153,-1,1.27056016653887,0.0428594119468393,0.0118274557331599,-1.00410171180734,0,1.12808128358128,-0.522200163258382,-0.876060981696993,-0.00936381663486326,-0.249302757266593
19,self,15,80,0.4,17.37,1,1,4.409,-191,0,3.576,1,7.951,0.2,-0.2,-192,-1,1.27056016653887,0.00857188238936787,0.0118274557331599,-1.29583396591353,0,0.644617876332157,0.522200163258382,-1.09937064369819,-0.00936381663486326,-0.997211029066371
19,self,16,90,0.25,3.296,1,-2,4.256,-231,1,12.583,1,1.912,0.1,-0.15,-232,3,0.794100104086795,0.00857188238936787,-0.0236549114663199,-1.56721280694254,0.00931803774530438,0.322308938166079,1.21846704760289,-1.32840619446864,0.0280914499045898,-0.747908271799778
19,self,17,75,0.25,2.01,-1,1,3.204,-169,1,195.311,1,1.487,0.25,0,-168,0,0.794100104086795,-0.00857188238936787,0.0118274557331599,-1.14657560334757,0.00931803774530438,0.805772345415196,0.174066721086127,-0.961949313235914,0,0
19,self,18,60,0.25,345.478,-192,-1,5.33,81,-3,2.313,0,2.394,0.4,0.15,273,-2,0.794100104086795,-1.64580141875863,-0.0118274557331599,0.549542153083748,-0.0279541132359131,1.28923575266431,-0.870333605430637,1.56316763400836,-0.0187276332697265,0.747908271799778
19,self,19,90,0.3,1.738,-1,1,2.467,-122,-2,4.892,1,2.543,0.1,-0.2,-121,-3,0.952920124904154,-0.00857188238936787,0.0118274557331599,-0.827705465138484,-0.0186360754906088,0.322308938166079,1.21846704760289,-0.692832541080629,-0.0280914499045898,-0.99721102906637
19,self,20,95,0.2,1.659,-2,0,12.114,-228,-7,2.767,1,2.418,0.05,-0.15,-226,-7,0.635280083269436,-0.0171437647787357,0,-1.54685939386536,-0.0652262642171306,0.161154469083039,1.56660048977515,-1.29405086185307,-0.0655467164440428,-0.747908271799778
20,self,1,70,0.1,7.464,-178,42,8.799,-90,-41,9.294,0,8.561,0.3,0.2,88,-83,0.317640041634718,-1.52579506530748,0.496753140792718,-0.610602392315275,-0.382039547557479,0.966926814498236,-0.174066721086127,0.503878211695003,-0.777196780693651,0.99721102906637
20,self,2,55,0.2,5.53,-32,-32,5.76,68,93,7.265,0,3.848,0.45,0.25,100,125,0.635280083269436,-0.274300236459772,-0.378478583461118,0.461344029749319,0.866577510313307,1.45039022174735,-1.21846704760289,0.572588876926139,1.17047707935791,1.24651378633296
20,self,3,80,0.3,5.381,-42,-23,7.336,-182,47,5.39,1,4.401,0.2,-0.1,-140,70,0.952920124904154,-0.36001906035345,-0.272031481862679,-1.234773726682,0.437947774029306,0.644617876332157,0.522200163258382,-0.801624427696595,0.655467164440428,-0.498605514533185
20,self,4,60,0.35,5.34,-12,22,6.794,-24,-37,4.844,0,4.832,0.4,0.05,-12,-59,1.11174014572151,-0.102862588672414,0.260204026129519,-0.162827304617407,-0.344767396576262,1.28923575266431,-0.870333605430637,-0.0687106652311367,-0.552465181456932,0.249302757266593
20,self,5,60,0.1,11.851,-136,52,5.693,116,-32,5.814,0,3.352,0.4,0.3,252,-84,0.317640041634718,-1.16577600495403,0.615027698124317,0.786998638984132,-0.29817720784974,1.28923575266431,-0.870333605430637,1.44292396985387,-0.786560597328514,1.49581654359956
20,self,6,90,0.2,4.058,-139,42,4.989,-203,221,5.298,1,3.024,0.1,-0.1,-64,179,0.635280083269436,-1.19149165212213,0.496753140792718,-1.37724761822223,2.05928634171227,0.322308938166079,1.21846704760289,-0.366456881232729,1.67612317764052,-0.498605514533185
20,self,7,85,0.4,3.911,126,-30,5.249,-154,166,4.564,1,3.616,0.15,-0.25,-280,196,1.27056016653887,1.08005718106035,-0.354823671994798,-1.04480853796169,1.54679426572053,0.483463407249118,0.870333605430637,-1.60324885539319,1.8353080604332,-1.24651378633296
20,self,8,70,0.25,3.435,-141,89,3.679,-25,-63,4.816,1,4.18,0.3,0.05,116,-152,0.794100104086795,-1.20863541690087,1.05264356025123,-0.169611775643132,-0.587036377954176,0.966926814498236,-0.174066721086127,0.664203097234322,-1.42330012849922,0.249302757266593
20,self,9,55,0.4,52.661,21,28,4.431,161,114,5.196,0,3.616,0.45,0.05,140,86,1.27056016653887,0.180009530176725,0.331168760528478,1.09229983514177,1.0622563029647,1.45039022174735,-1.21846704760289,0.801624427696595,0.805288230598241,0.249302757266593
20,self,10,75,0.1,3.613,-151,-43,3.707,-151,129,6.017,1,3.604,0.25,0.15,0,172,0.317640041634718,-1.29435424079455,-0.508580596525878,-1.02445512488452,1.20202686914426,0.805772345415196,0.174066721086127,0,1.61057646119648,0.747908271799778
20,self,11,50,0.2,3.673,-123,-33,3.745,243,117,6.842,0,3.698,0.5,0.3,366,150,0.635280083269436,-1.05434153389225,-0.390306039194278,1.64862645925124,1.09021041620061,1.61154469083039,-1.56660048977515,2.09567528954967,1.40457249522949,1.49581654359956
20,self,12,95,0.25,4.554,-125,-54,4.949,-235,238,5.843,1,4.784,0.05,-0.2,-110,292,0.794100104086795,-1.07148529867098,-0.638682609590637,-1.59435069104544,2.21769298338244,0.161154469083039,1.56660048977515,-0.629847764618753,2.73423445738007,-0.997211029066371
20,self,13,90,0.2,4.066,-80,-55,3.672,-157,182,3.907,1,6.506,0.1,-0.1,-77,237,0.635280083269436,-0.685750591149429,-0.650510065323797,-1.06516195103887,1.6958828696454,0.322308938166079,1.21846704760289,-0.440893435233127,2.21922454246259,-0.498605514533185
20,self,14,50,0.1,5.249,-186,65,4.035,242,134,4.828,0,3.309,0.5,0.4,428,69,0.317640041634718,-1.59437012442242,0.768784622655396,1.64184198822552,1.24861705787079,1.61154469083039,-1.56660048977515,2.45068039324388,0.646103347805565,1.99442205813274
20,self,15,85,0.2,3.644,-131,-51,3.796,-162,171,5.031,1,12.576,0.15,-0.05,-31,222,0.635280083269436,-1.12291659300719,-0.603200242391157,-1.0990843061675,1.59338445444705,0.483463407249118,0.870333605430637,-0.177502551847103,2.07876729293964,-0.249302757266593
20,self,16,65,0.3,5.945,4,41,5.207,-151,71,5.436,1,3.374,0.35,0.05,-155,30,0.952920124904154,0.0342875295574715,0.484925685059558,-1.02445512488452,0.661580679916611,1.12808128358128,-0.522200163258382,-0.887512759235516,0.280914499045898,0.249302757266593
20,self,17,65,0.3,11.456,0,78,3.784,-22,67,4.951,0,3.133,0.35,0.05,-22,-11,0.952920124904154,0,0.922541547186476,-0.149258362565956,0.624308528935393,1.12808128358128,-0.522200163258382,-0.125969552923751,-0.103001982983496,0.249302757266593
20,self,18,95,0.15,3.698,-124,-58,3.388,-243,235,5.038,1,3.783,0.05,-0.1,-119,293,0.476460062452077,-1.06291341628162,-0.685992432523277,-1.64862645925124,2.18973887014653,0.161154469083039,1.56660048977515,-0.681380763542106,2.74359827401494,-0.498605514533185
20,self,19,75,0.3,11.492,13,8,8.762,-126,69,4.082,1,3.933,0.25,-0.05,-139,61,0.952920124904154,0.111434471061782,0.0946196458652795,-0.854843349241385,0.642944604426002,0.805772345415196,0.174066721086127,-0.795898538927334,0.571192814726659,-0.249302757266593
20,self,20,80,0.3,6.491,5,19,3.397,-184,120,3.915,1,3.479,0.2,-0.1,-189,101,0.952920124904154,0.0428594119468393,0.224721658930039,-1.24834266873345,1.11816452943653,0.644617876332157,0.522200163258382,-1.0821929773904,0.94574548012119,-0.498605514533185
21,self,1,90,0.25,6.403,-185,69,8.355,-224,135,8.984,1,3.413,0.1,-0.15,-39,66,0.794100104086795,-1.58579824203306,0.816094445588036,-1.51972150976246,1.25793509561609,0.322308938166079,1.21846704760289,-0.223309662001194,0.618011897900975,-0.747908271799778
21,self,2,50,0.5,5.092,99,121,4.259,104,112,4.992,0,4.978,0.5,0,5,-9,1.58820020817359,0.848616356547419,1.43112214371235,0.705584986675429,1.04362022747409,1.61154469083039,-1.56660048977515,0.028629443846307,-0.0842743497137694,0
21,self,3,60,0.25,4.736,-62,-57,3.843,-23,-20,5.389,0,5.029,0.4,0.15,39,37,0.794100104086795,-0.531456708140808,-0.674164976790117,-0.156042833591681,-0.186360754906088,1.28923575266431,-0.870333605430637,0.223309662001194,0.346461215489941,0.747908271799778
21,self,4,90,0.5,4.773,115,109,3.729,-214,195,7.744,1,3.397,0.1,-0.4,-329,86,1.58820020817359,0.985766474777305,1.28919267491443,-1.45187679950521,1.81701736033435,0.322308938166079,1.21846704760289,-1.883817405087,0.805288230598241,-1.99442205813274
21,self,5,75,0.15,6.803,-173,41,5.827,-58,2,8.965,1,5.141,0.25,0.1,115,-39,0.476460062452077,-1.48293565336064,0.484925685059558,-0.393499319492066,0.0186360754906088,0.805772345415196,0.174066721086127,0.65847720846506,-0.365188848759667,0.498605514533185
21,self,6,85,0.5,3.184,103,91,3.8,-149,40,7.521,1,3.626,0.15,-0.35,-252,-51,1.58820020817359,0.88290388610489,1.07629847171755,-1.01088618283307,0.372721509812175,0.483463407249118,0.870333605430637,-1.44292396985387,-0.477554648378026,-1.74511930086615
21,self,7,95,0.25,5.678,-71,25,6.181,-231,228,7.201,1,3.855,0.05,-0.2,-160,203,0.794100104086795,-0.608603649645118,0.295686393328999,-1.56721280694254,2.1245126059294,0.161154469083039,1.56660048977515,-0.916142203081823,1.90085477687724,-0.997211029066371
21,self,8,55,0,5.454,-191,7,5.097,24,19,7.845,0,3.678,0.45,0.45,215,12,0,-1.63722953636926,0.0827921901321196,0.162827304617407,0.177042717160783,1.45039022174735,-1.21846704760289,1.2310660853912,0.112365799618359,2.24372481539933
21,self,9,75,0.3,110.439,-1,-1,4.381,-1,1,5.504,1,3.447,0.25,-0.05,0,2,0.952920124904154,-0.00857188238936787,-0.0118274557331599,-0.00678447102572528,0.00931803774530438,0.805772345415196,0.174066721086127,0,0.0187276332697265,-0.249302757266593
21,self,10,70,0.25,4.083,-35,-2,4.453,1,0,7.042,1,5.169,0.3,0.05,36,2,0.794100104086795,-0.300015883627875,-0.0236549114663199,0.00678447102572528,0,0.966926814498236,-0.174066721086127,0.20613199569341,0.0187276332697265,0.249302757266593
21,self,11,80,0.5,3.096,95,98,4.599,-201,72,4.375,1,3.418,0.2,-0.3,-296,-26,1.58820020817359,0.814328826989947,1.15909066184967,-1.36367867617078,0.670898717661915,0.644617876332157,0.522200163258382,-1.69486307570137,-0.243459232506445,-1.49581654359956
21,self,12,80,0.4,4.502,44,54,3.356,-163,28,3.637,1,2.949,0.2,-0.2,-207,-26,1.27056016653887,0.377162825132186,0.638682609590637,-1.10586877719322,0.260905056868523,0.644617876332157,0.522200163258382,-1.18525897523711,-0.243459232506445,-0.997211029066371
21,self,13,95,0.1,7.03,-130,38,4.951,-213,62,8.58,1,3.22,0.05,-0.05,-83,24,0.317640041634718,-1.11434471061782,0.449443317860078,-1.44509232847948,0.577718340208871,0.161154469083039,1.56660048977515,-0.475248767848696,0.224731599236718,-0.249302757266593
21,self,14,70,0.5,8.858,98,105,3.845,0,2,6.434,1,3.159,0.3,-0.2,-98,-103,1.58820020817359,0.840044474158051,1.24188285198179,0,0.0186360754906088,0.966926814498236,-0.174066721086127,-0.561137099387617,-0.964473113390916,-0.997211029066371
21,self,15,50,0.25,6.358,1,1,3.86,136,121,4.235,0,3.08,0.5,0.25,135,120,0.794100104086795,0.00857188238936787,0.0118274557331599,0.922688059498638,1.12748256718183,1.61154469083039,-1.56660048977515,0.772994983850288,1.12365799618359,1.24651378633296
21,self,16,65,0.4,3.635,74,53,4.304,5,12,13.494,0,3.313,0.35,-0.05,-69,-41,1.27056016653887,0.634319296813222,0.626855153857477,0.0339223551286264,0.111816452943653,1.12808128358128,-0.522200163258382,-0.395086325079036,-0.383916482029394,-0.249302757266593
21,self,17,85,0.05,4.293,0,0,3.798,-1,1,5.515,1,3.089,0.15,0.1,-1,1,0.158820020817359,0,0,-0.00678447102572528,0.00931803774530438,0.483463407249118,0.870333605430637,-0.00572588876926139,0.00936381663486326,0.498605514533185
21,self,18,55,0.5,2.707,113,122,2.69,62,53,3.824,0,3.023,0.45,-0.05,-51,-69,1.58820020817359,0.968622709998569,1.44294959944551,0.420637203594967,0.493856000501132,1.45039022174735,-1.21846704760289,-0.292020327232331,-0.646103347805565,-0.249302757266593
21,self,19,60,0.5,2.647,105,101,2.491,59,44,11.888,0,2.569,0.4,-0.1,-46,-57,1.58820020817359,0.900047650883626,1.19457302904915,0.400283790517791,0.409993660793393,1.28923575266431,-0.870333605430637,-0.263390883386024,-0.533737548187206,-0.498605514533185
21,self,20,65,0.5,2.715,94,84,3.495,11,9,7.716,0,2.907,0.35,-0.15,-83,-75,1.58820020817359,0.805756944600579,0.993506281585435,0.0746291812829781,0.0838623397077394,1.12808128358128,-0.522200163258382,-0.475248767848696,-0.702286247614745,-0.747908271799778
22,self,1,55,0.2,23.843,-114,65,6.384,113,79,7.125,0,6.258,0.45,0.25,227,14,0.635280083269436,-0.977194592387937,0.768784622655396,0.766645225906956,0.736124981879046,1.45039022174735,-1.21846704760289,1.29977675062234,0.131093432888086,1.24651378633296
22,self,2,90,0.05,5.024,-57,-154,4.167,-183,53,5.445,1,3.524,0.1,0.05,-126,207,0.158820020817359,-0.488597296193968,-1.8214281829066299,-1.24155819770773,0.493856000501132,0.322308938166079,1.21846704760289,-0.721461984926936,1.9383100434167,0.249302757266593
22,self,3,65,0.3,3.589,-9,0,5.965,0,43,5.55,0,4.268,0.35,0.05,9,43,0.952920124904154,-0.0771469415043108,0,0,0.400675623048088,1.12808128358128,-0.522200163258382,0.0515329989233525,0.40264411529912,0.249302757266593
22,self,4,80,0.15,4.923,-58,-92,3.889,-4,-165,4.092,1,2.515,0.2,0.05,54,-73,0.476460062452077,-0.497169178583336,-1.08812592745071,-0.0271378841029011,-1.53747622797522,0.644617876332157,0.522200163258382,0.309197993540115,-0.683558614345018,0.249302757266593
22,self,5,50,0.05,2.846,-201,-133,5.706,20,163,3.997,0,3.198,0.5,0.45,221,296,0.158820020817359,-1.72294836026294,-1.57305161251027,0.135689420514506,1.51884015248461,1.61154469083039,-1.56660048977515,1.26542141800677,2.77168972391953,2.24372481539933
22,self,6,95,0.1,7.348,-32,4,4.367,-74,188,4.307,1,2.485,0.05,-0.05,-42,184,0.317640041634718,-0.274300236459772,0.0473098229326398,-0.502050855903671,1.75179109611722,0.161154469083039,1.56660048977515,-0.240487328308979,1.72294226081484,-0.249302757266593
22,self,7,70,0.05,8.219,-57,10,4.83,-13,-38,4.821,1,3.235,0.3,0.25,44,-48,0.158820020817359,-0.488597296193968,0.118274557331599,-0.0881981233344286,-0.354085434321566,0.966926814498236,-0.174066721086127,0.251939105847501,-0.449463198473437,1.24651378633296
22,self,8,55,0.2,3.69,-57,-28,5.07,95,155,4.35,0,3.062,0.45,0.25,152,183,0.635280083269436,-0.488597296193968,-0.331168760528478,0.644524747443901,1.44429585052218,1.45039022174735,-1.21846704760289,0.870335092927732,1.71357844417998,1.24651378633296
22,self,9,60,0.25,8.448,-36,20,3.377,-16,59,3.576,0,2.824,0.4,0.15,20,39,0.794100104086795,-0.308587766017243,0.236549114663199,-0.108551536411604,0.549764226972958,1.28923575266431,-0.870333605430637,0.114517775385228,0.365188848759667,0.747908271799778
22,self,10,65,0.3,3.025,-10,12,3.79,14,-85,6.287,0,5.685,0.35,0.05,24,-97,0.952920124904154,-0.0857188238936787,0.141929468797919,0.0949825943601539,-0.792033208350872,1.12808128358128,-0.522200163258382,0.137421330462273,-0.908290213581736,0.249302757266593
22,self,11,85,0,16.464,-37,-65,8.195,-137,117,5.209,1,2.763,0.15,0.15,-100,182,0,-0.317159648406611,-0.768784622655396,-0.929472530524363,1.09021041620061,0.483463407249118,0.870333605430637,-0.572588876926139,1.70421462754511,0.747908271799778
22,self,12,75,0.1,3.392,-42,-137,4.998,-55,-153,3.852,1,28.742,0.25,0.15,-13,-16,0.317640041634718,-0.36001906035345,-1.62036143544291,-0.37314590641489,-1.42565977503157,0.805772345415196,0.174066721086127,-0.0744365540003981,-0.149821066157812,0.747908271799778
22,self,13,80,0.35,3.37,49,50,4.402,-99,-91,3.03,1,3.482,0.2,-0.15,-148,-141,1.11174014572151,0.420022237079025,0.591372786657997,-0.671662631546803,-0.847941434822698,0.644617876332157,0.522200163258382,-0.847431537850686,-1.32029814551572,-0.747908271799778
22,self,14,70,0.2,4.599,-39,-70,2.946,-90,-108,6.235,1,3.305,0.3,0.1,-51,-38,0.635280083269436,-0.334303413185347,-0.827921901321196,-0.610602392315275,-1.00634807649287,0.966926814498236,-0.174066721086127,-0.292020327232331,-0.355825032124804,0.498605514533185
22,self,15,50,0.35,2.913,38,19,3.33,40,197,4.712,0,3.31,0.5,0.15,2,178,1.11174014572151,0.325731530795979,0.224721658930039,0.271378841029011,1.83565343582496,1.61154469083039,-1.56660048977515,0.0114517775385228,1.66675936100566,0.747908271799778
22,self,16,90,0.2,2.762,3,36,3.261,-123,221,3.951,1,2.685,0.1,-0.1,-126,185,0.635280083269436,0.0257156471681036,0.425788406393758,-0.834489936164209,2.05928634171227,0.322308938166079,1.21846704760289,-0.721461984926936,1.7323060774497,-0.498605514533185
22,self,17,85,0.1,2.668,-21,77,4.974,-60,-115,3.091,1,2.661,0.15,0.05,-39,-192,0.317640041634718,-0.180009530176725,0.910714091453316,-0.407068261543517,-1.07157434071,0.483463407249118,0.870333605430637,-0.223309662001194,-1.79785279389375,0.249302757266593
22,self,18,95,0.05,3.269,-79,-47,2.81,-197,-46,4.717,1,2.687,0.05,0,-118,1,0.158820020817359,-0.677178708760061,-0.555890419458517,-1.33654079206788,-0.428629736284001,0.161154469083039,1.56660048977515,-0.675654874772844,0.00936381663486326,0
22,self,19,60,0.25,4.062,-118,-131,4.739,9,55,4.167,0,2.566,0.4,0.15,127,186,0.794100104086795,-1.01148212194541,-1.54939670104395,0.0610602392315275,0.512492075991741,1.28923575266431,-0.870333605430637,0.727187873696197,1.74166989408457,0.747908271799778
