sub,role,trial,unfairness,choice,choice_RT
1,self,1,50,0,3.5
1,self,2,80,0,5.792
1,self,3,95,0,5.581
1,self,4,60,0,1.913
1,self,5,75,0,2.293
1,self,6,90,0,2.008
1,self,7,75,0,2.159
1,self,8,60,0,2.055
1,self,9,95,0,2.256
1,self,10,70,0,2.192
1,self,11,85,0,1.875
1,self,12,65,0,2.078
1,self,13,85,0,1.894
1,self,14,55,0,1.865
1,self,15,90,0,1.899
1,self,16,70,0,3.419
1,self,17,80,0,1.777
1,self,18,50,0,2.184
1,self,19,65,0,2.063
1,self,20,55,0,4.275
2,self,1,60,0,3.132
2,self,2,55,0,1.899
2,self,3,85,1,2.299
2,self,4,95,1,2.427
2,self,5,65,0,2.718
2,self,6,55,0,2.91
2,self,7,80,1,1.816
2,self,8,50,0,2.076
2,self,9,90,1,1.59
2,self,10,90,0,1.351
2,self,11,75,0,1.95
2,self,12,95,1,5.01
2,self,13,85,1,1.866
2,self,14,70,0,1.841
2,self,15,60,0,2.653
2,self,16,65,0,2.881
2,self,17,70,0,1.619
2,self,18,75,1,2.267
2,self,19,50,0,2.097
2,self,20,80,0,1.983
3,self,1,90,0,3.101
3,self,2,70,0,3.582
3,self,3,55,0,3.421
3,self,4,70,0,2.738
3,self,5,55,0,2.58
3,self,6,50,0,2.374
3,self,7,75,0,2.371
3,self,8,60,0,2.402
3,self,9,65,0,2.177
3,self,10,90,0,2.231
3,self,11,80,0,2.135
3,self,12,50,0,4.072
3,self,13,60,0,2.121
3,self,14,85,0,1.862
3,self,15,65,0,1.753
3,self,16,95,0,2.365
3,self,17,85,0,4.172
3,self,18,75,0,2.027
3,self,19,80,0,3.006
3,self,20,95,0,1.935
4,self,1,50,0,6.406
4,self,2,60,0,2.29
4,self,3,50,0,2.203
4,self,4,95,1,1.731
4,self,5,90,0,1.416
4,self,6,65,1,2.829
4,self,7,70,0,1.583
4,self,8,55,0,2.34
4,self,9,95,1,1.656
4,self,10,90,1,1.602
4,self,11,80,1,3.018
4,self,12,85,1,1.936
4,self,13,85,1,1.307
4,self,14,60,0,2.086
4,self,15,75,1,2.083
4,self,16,80,1,1.844
4,self,17,75,1,1.574
4,self,18,55,0,1.991
4,self,19,65,0,1.684
4,self,20,70,0,1.483
5,self,1,85,0,8.013
5,self,2,80,0,6.957
5,self,3,60,0,19.816
5,self,4,55,0,8.008
5,self,5,70,0,3.071
5,self,6,95,1,3.741
5,self,7,90,1,3.742
5,self,8,70,0,2.919
5,self,9,90,1,3.104
5,self,10,80,0,2.246
5,self,11,85,1,3.019
5,self,12,75,0,2.217
5,self,13,60,0,2.406
5,self,14,65,0,2.267
5,self,15,95,1,2.215
5,self,16,65,0,1.86
5,self,17,50,0,3.134
5,self,18,75,0,1.664
5,self,19,50,0,2.339
5,self,20,55,0,2.793
6,self,1,55,0,5.091
6,self,2,60,0,2.669
6,self,3,90,1,5.457
6,self,4,65,0,3.827
6,self,5,85,1,4.723
6,self,6,50,0,4.211
6,self,7,95,1,2.642
6,self,8,50,0,3.214
6,self,9,80,1,3.214
6,self,10,60,0,4.157
6,self,11,70,0,3.344
6,self,12,80,1,6.921
6,self,13,70,0,2.84
6,self,14,55,0,3.165
6,self,15,90,1,3.334
6,self,16,85,1,3.357
6,self,17,65,0,2.758
6,self,18,75,0,2.67
6,self,19,95,1,4.332
6,self,20,75,0,2.451
7,self,1,70,0,5.302
7,self,2,95,1,3.623
7,self,3,55,0,3.2
7,self,4,90,0,4.89
7,self,5,60,0,3.012
7,self,6,80,0,2.93
7,self,7,75,0,3.134
7,self,8,95,1,2.967
7,self,9,55,0,3.018
7,self,10,80,0,2.984
7,self,11,90,0,4.925
7,self,12,50,0,2.616
7,self,13,50,0,2.687
7,self,14,85,0,3.248
7,self,15,65,0,3.17
7,self,16,60,0,2.82
7,self,17,75,0,2.547
7,self,18,70,0,2.835
7,self,19,85,0,2.921
7,self,20,65,0,2.788
8,self,1,50,0,7.447
8,self,2,55,0,4.048
8,self,3,95,0,16.129
8,self,4,90,0,3.35
8,self,5,80,0,4.056
8,self,6,85,0,3.956
8,self,7,65,0,3.003
8,self,8,75,0,3.596
8,self,9,80,0,3.193
8,self,10,50,0,3.643
8,self,11,55,0,22.012
8,self,12,60,0,2.825
8,self,13,65,0,3.887
8,self,14,60,0,3.115
8,self,15,70,0,4.068
8,self,16,95,0,4.387
8,self,17,85,0,2.974
8,self,18,75,0,2.767
8,self,19,70,0,3.542
8,self,20,90,0,3.613
9,self,1,90,1,8.392
9,self,2,80,1,6.39
9,self,3,55,0,5.964
9,self,4,60,0,5.501
9,self,5,55,0,5.043
9,self,6,65,0,5.345
9,self,7,95,1,5.27
9,self,8,95,1,5.136
9,self,9,70,0,5.023
9,self,10,75,0,4.59
9,self,11,75,0,4.21
9,self,12,50,0,5.345
9,self,13,70,0,3.49
9,self,14,85,1,4.021
9,self,15,65,0,3.682
9,self,16,50,0,4.032
9,self,17,80,1,4.125
9,self,18,90,1,4.908
9,self,19,60,0,5.255
9,self,20,85,1,4.864
10,self,1,65,0,4.092
10,self,2,80,0,2.225
10,self,3,85,0,2.877
10,self,4,85,0,2.778
10,self,5,75,0,3.572
10,self,6,55,0,7.219
10,self,7,65,0,3.142
10,self,8,60,0,2.527
10,self,9,90,0,2.029
10,self,10,80,0,2.064
10,self,11,60,0,2.69
10,self,12,95,0,10.797
10,self,13,75,0,2.428
10,self,14,95,0,1.676
10,self,15,50,0,2.415
10,self,16,90,0,3.605
10,self,17,55,0,2.786
10,self,18,70,0,3.924
10,self,19,50,0,2.651
10,self,20,70,0,2.361
11,self,1,50,0,5.658
11,self,2,85,0,1.685
11,self,3,90,0,3.137
11,self,4,90,0,1.732
11,self,5,75,0,2.477
11,self,6,95,0,2.779
11,self,7,50,0,2.916
11,self,8,70,0,1.753
11,self,9,95,0,2.128
11,self,10,85,0,1.314
11,self,11,80,0,2.056
11,self,12,55,0,13.099
11,self,13,55,0,1.879
11,self,14,60,0,1.266
11,self,15,70,0,3.332
11,self,16,65,0,2.125
11,self,17,65,0,1.834
11,self,18,75,0,3.29
11,self,19,60,0,1.756
11,self,20,80,0,1.351
12,self,1,80,0,5.688
12,self,2,55,0,3.331
12,self,3,90,0,3.393
12,self,4,50,0,3.276
12,self,5,65,0,3.271
12,self,6,70,0,3.279
12,self,7,60,0,3.124
12,self,8,95,0,3.123
12,self,9,90,0,2.979
12,self,10,80,0,2.997
12,self,11,70,0,3.127
12,self,12,75,0,2.626
12,self,13,60,0,3.355
12,self,14,65,0,3.408
12,self,15,50,0,3.443
12,self,16,95,0,2.781
12,self,17,55,0,2.972
12,self,18,85,0,3.131
12,self,19,85,0,3.093
12,self,20,75,0,3.444
14,self,1,65,1,3.674
14,self,2,90,1,3.002
14,self,3,55,0,4.196
14,self,4,95,1,2.608
14,self,5,85,1,2.904
14,self,6,55,0,2.337
14,self,7,60,0,2.475
14,self,8,70,1,3.288
14,self,9,60,0,2.675
14,self,10,90,1,2.259
14,self,11,50,0,2.846
14,self,12,80,1,2.111
14,self,13,50,0,3.663
14,self,14,75,1,2.482
14,self,15,75,1,2.139
14,self,16,80,1,2.631
14,self,17,85,1,2.446
14,self,18,95,1,2.264
14,self,19,70,1,3.443
14,self,20,65,1,2.272
15,self,1,95,0,3.346
15,self,2,80,0,2.854
15,self,3,85,0,2.577
15,self,4,80,0,1.763
15,self,5,95,0,1.85
15,self,6,90,0,1.986
15,self,7,50,0,2.247
15,self,8,65,0,2.014
15,self,9,70,0,1.73
15,self,10,70,0,1.758
15,self,11,65,0,2.403
15,self,12,55,0,2.119
15,self,13,55,0,1.45
15,self,14,90,0,1.955
15,self,15,50,0,1.804
15,self,16,75,0,1.799
15,self,17,60,0,1.928
15,self,18,85,0,2.148
15,self,19,75,0,1.285
15,self,20,60,0,1.556
16,self,1,55,0,2.698
16,self,2,60,0,2.027
16,self,3,95,1,2.45
16,self,4,60,0,2.323
16,self,5,85,1,2.316
16,self,6,80,1,2.336
16,self,7,70,1,2.865
16,self,8,75,1,2.217
16,self,9,65,1,2.482
16,self,10,80,1,2.653
16,self,11,95,1,2.494
16,self,12,50,0,1.97
16,self,13,70,1,2.369
16,self,14,55,0,2.585
16,self,15,90,1,2.536
16,self,16,85,1,2.633
16,self,17,75,1,1.937
16,self,18,65,1,2.313
16,self,19,50,0,2.725
16,self,20,90,1,2.231
18,self,1,75,1,6.255
18,self,2,70,1,6.297
18,self,3,65,1,4.013
18,self,4,60,0,3.125
18,self,5,80,1,3.625
18,self,6,90,1,2.579
18,self,7,50,0,4.803
18,self,8,80,1,3.457
18,self,9,85,1,3.863
18,self,10,75,1,3.478
18,self,11,90,1,4.198
18,self,12,65,0,4.188
18,self,13,60,0,4.82
18,self,14,85,1,3.44
18,self,15,95,1,3.327
18,self,16,95,1,3.118
18,self,17,55,0,3.037
18,self,18,55,0,3.597
18,self,19,50,0,3.37
18,self,20,70,1,3.011
19,self,1,55,0,3.565
19,self,2,80,1,4.568
19,self,3,85,1,2.256
19,self,4,75,1,2.911
19,self,5,95,1,3.403
19,self,6,65,1,2.482
19,self,7,60,0,2.173
19,self,8,50,0,2.268
19,self,9,55,0,2.357
19,self,10,85,1,2.169
19,self,11,50,0,2.014
19,self,12,70,0,1.924
19,self,13,70,0,5.428
19,self,14,65,0,3.164
19,self,15,80,1,7.951
19,self,16,90,1,1.912
19,self,17,75,1,1.487
19,self,18,60,0,2.394
19,self,19,90,1,2.543
19,self,20,95,1,2.418
20,self,1,70,0,8.561
20,self,2,55,0,3.848
20,self,3,80,1,4.401
20,self,4,60,0,4.832
20,self,5,60,0,3.352
20,self,6,90,1,3.024
20,self,7,85,1,3.616
20,self,8,70,1,4.18
20,self,9,55,0,3.616
20,self,10,75,1,3.604
20,self,11,50,0,3.698
20,self,12,95,1,4.784
20,self,13,90,1,6.506
20,self,14,50,0,3.309
20,self,15,85,1,12.576
20,self,16,65,1,3.374
20,self,17,65,0,3.133
20,self,18,95,1,3.783
20,self,19,75,1,3.933
20,self,20,80,1,3.479
21,self,1,90,1,3.413
21,self,2,50,0,4.978
21,self,3,60,0,5.029
21,self,4,90,1,3.397
21,self,5,75,1,5.141
21,self,6,85,1,3.626
21,self,7,95,1,3.855
21,self,8,55,0,3.678
21,self,9,75,1,3.447
21,self,10,70,1,5.169
21,self,11,80,1,3.418
21,self,12,80,1,2.949
21,self,13,95,1,3.22
21,self,14,70,1,3.159
21,self,15,50,0,3.08
21,self,16,65,0,3.313
21,self,17,85,1,3.089
21,self,18,55,0,3.023
21,self,19,60,0,2.569
21,self,20,65,0,2.907
22,self,1,55,0,6.258
22,self,2,90,1,3.524
22,self,3,65,0,4.268
22,self,4,80,1,2.515
22,self,5,50,0,3.198
22,self,6,95,1,2.485
22,self,7,70,1,3.235
22,self,8,55,0,3.062
22,self,9,60,0,2.824
22,self,10,65,0,5.685
22,self,11,85,1,2.763
22,self,12,75,1,28.742
22,self,13,80,1,3.482
22,self,14,70,1,3.305
22,self,15,50,0,3.31
22,self,16,90,1,2.685
22,self,17,85,1,2.661
22,self,18,95,1,2.687
22,self,19,60,0,2.566
22,self,20,75,1,3.872
23,self,1,70,0,18.386
23,self,2,80,1,2.738
23,self,3,60,0,1.848
23,self,4,75,1,1.775
23,self,5,65,0,1.558
23,self,6,75,1,2.693
23,self,7,60,0,2.166
23,self,8,90,1,1.61
23,self,9,95,1,1.664
23,self,10,80,1,1.712
23,self,11,70,0,3.213
23,self,12,55,0,1.757
23,self,13,50,0,1.939
23,self,14,65,0,2.173
23,self,15,55,0,2.216
23,self,16,85,1,2.753
23,self,17,85,1,12.764
23,self,18,95,1,2.808
23,self,19,90,1,1.752
23,self,20,50,0,2.148
24,self,1,70,0,4.959
24,self,2,70,0,3.288
24,self,3,80,0,3.202
24,self,4,95,0,4.634
24,self,5,65,0,2.544
24,self,6,90,0,3.529
24,self,7,75,0,4.282
24,self,8,65,0,8.895
24,self,9,85,0,3.295
24,self,10,55,0,17.611
24,self,11,50,0,3.049
24,self,12,60,0,3.868
24,self,13,60,0,2.886
24,self,14,80,0,3.726
24,self,15,95,0,5.366
24,self,16,55,0,3.306
24,self,17,90,0,2.637
24,self,18,75,0,8.399
24,self,19,50,0,3.425
24,self,20,85,0,3.159
25,self,1,80,1,4.63
25,self,2,55,0,2.513
25,self,3,65,0,6.509
25,self,4,70,1,3.406
25,self,5,80,1,2.213
25,self,6,75,1,2.058
25,self,7,75,1,1.68
25,self,8,70,1,1.791
25,self,9,55,0,3.057
25,self,10,85,1,1.866
25,self,11,60,0,1.675
25,self,12,60,0,1.444
25,self,13,95,1,1.648
25,self,14,90,1,2.233
25,self,15,85,1,1.933
25,self,16,50,0,1.585
25,self,17,50,0,2.019
25,self,18,65,0,1.99
25,self,19,90,1,1.749
25,self,20,95,1,3.679
26,self,1,95,0,31.39
26,self,2,80,0,5.703
26,self,3,75,0,5.175
26,self,4,75,0,5.213
26,self,5,70,0,3.848
26,self,6,50,0,3.384
26,self,7,65,0,3.013
26,self,8,60,0,3.519
26,self,9,55,0,2.879
26,self,10,65,0,5.551
26,self,11,70,0,2.9
26,self,12,90,0,2.784
26,self,13,95,0,3.973
26,self,14,85,0,3.084
26,self,15,55,0,3.092
26,self,16,60,0,3.143
26,self,17,85,0,3.184
26,self,18,80,0,3.599
26,self,19,50,0,2.857
26,self,20,90,0,3.265
27,self,1,90,0,5.659
27,self,2,75,0,2.163
27,self,3,65,0,2.903
27,self,4,75,0,2.752
27,self,5,55,0,2.722
27,self,6,65,0,2.889
27,self,7,85,0,2.738
27,self,8,70,0,2.316
27,self,9,50,0,2.792
27,self,10,95,0,2.314
27,self,11,55,0,2.723
27,self,12,85,0,3.311
27,self,13,95,0,2.889
27,self,14,50,0,2.318
27,self,15,60,0,2.641
27,self,16,70,0,2.771
27,self,17,80,0,3.062
27,self,18,90,0,2.536
27,self,19,60,0,2.596
27,self,20,80,0,2.955
28,self,1,50,0,2.461
28,self,2,80,0,2.084
28,self,3,80,0,2.303
28,self,4,55,0,1.914
28,self,5,90,0,1.461
28,self,6,95,1,2.202
28,self,7,85,0,1.414
28,self,8,70,0,1.852
28,self,9,75,0,2.35
28,self,10,65,0,2.028
28,self,11,90,0,1.171
28,self,12,60,0,1.241
28,self,13,60,0,1.37
28,self,14,75,0,2.427
28,self,15,65,0,3.228
28,self,16,85,0,1.929
28,self,17,70,0,1.497
28,self,18,50,0,2.352
28,self,19,55,0,1.933
28,self,20,95,1,1.56
29,self,1,55,0,5.478
29,self,2,60,0,3.868
29,self,3,95,0,7.958
29,self,4,65,0,4.272
29,self,5,50,0,5.12
29,self,6,70,0,5.118
29,self,7,55,0,5.21
29,self,8,90,0,4.99
29,self,9,80,0,5.426
29,self,10,80,0,3.736
29,self,11,50,0,4.009
29,self,12,90,0,3.672
29,self,13,60,0,3.886
29,self,14,75,0,3.333
29,self,15,70,0,3.997
29,self,16,85,0,3.434
29,self,17,65,0,3.944
29,self,18,95,0,3.9
29,self,19,85,0,3.656
29,self,20,75,0,6.404
30,self,1,65,0,2.91
30,self,2,95,1,2.687
30,self,3,65,0,1.95
30,self,4,80,1,2.127
30,self,5,60,0,1.376
30,self,6,85,1,2.024
30,self,7,70,0,2.583
30,self,8,55,0,1.125
30,self,9,50,0,1.797
30,self,10,70,0,2.443
30,self,11,80,1,1.225
30,self,12,50,0,1.458
30,self,13,55,0,1.769
30,self,14,90,1,2.146
30,self,15,75,1,3.334
30,self,16,60,0,2.348
30,self,17,85,1,1.901
30,self,18,90,1,1.667
30,self,19,75,0,1.761
30,self,20,95,1,2.101
31,self,1,85,1,5.984
31,self,2,85,1,6.876
31,self,3,50,0,4.627
31,self,4,60,0,7.106
31,self,5,60,0,3.156
31,self,6,75,1,4.687
31,self,7,65,1,4.669
31,self,8,55,0,3.322
31,self,9,95,1,3.458
31,self,10,50,0,3.76
31,self,11,95,1,3.398
31,self,12,70,1,2.868
31,self,13,55,0,3.444
31,self,14,65,1,3.547
31,self,15,90,1,3.378
31,self,16,80,1,2.913
31,self,17,70,1,3.568
31,self,18,90,1,2.805
31,self,19,75,1,3.94
31,self,20,80,1,3.471
32,self,1,95,1,6.096
32,self,2,95,1,3.821
32,self,3,85,1,3.46
32,self,4,55,0,2.756
32,self,5,85,1,3.295
32,self,6,90,1,3.137
32,self,7,80,0,3.444
32,self,8,50,0,3.307
32,self,9,50,0,7.574
32,self,10,70,0,2.281
32,self,11,75,0,2.288
32,self,12,60,0,2.771
32,self,13,75,0,2.565
32,self,14,90,1,3.904
32,self,15,55,0,3.385
32,self,16,65,0,2.868
32,self,17,65,0,2.33
32,self,18,80,0,2.337
32,self,19,70,0,2.8
32,self,20,60,0,3.198
33,self,1,90,1,12.691
33,self,2,60,0,6.119
33,self,3,95,1,4.762
33,self,4,55,0,9.527
33,self,5,85,1,7.693
33,self,6,55,0,7.281
33,self,7,70,0,15.496
33,self,8,75,1,9.451
33,self,9,65,0,5.379
33,self,10,70,0,5.172
33,self,11,50,0,4.4
33,self,12,60,0,4.982
33,self,13,80,1,6.069
33,self,14,80,1,9.669
33,self,15,95,1,5.398
33,self,16,75,0,5.521
33,self,17,65,0,3.715
33,self,18,85,1,7.241
33,self,19,50,0,5.269
33,self,20,90,1,6.33
34,self,1,90,0,5.01
34,self,2,85,0,1.525
34,self,3,80,0,3.045
34,self,4,55,0,2.571
34,self,5,55,0,2.351
34,self,6,75,0,1.621
34,self,7,50,0,2.091
34,self,8,50,0,1.891
34,self,9,95,1,4.425
34,self,10,90,0,2.403
34,self,11,70,0,1.914
34,self,12,70,0,2.974
34,self,13,75,0,3.298
34,self,14,65,0,2.236
34,self,15,85,0,1.727
34,self,16,80,0,2.767
34,self,17,65,0,2.599
34,self,18,60,0,1.813
34,self,19,95,1,2.491
34,self,20,60,0,8.601
36,self,1,95,1,3.542
36,self,2,55,0,2.806
36,self,3,95,1,2.404
36,self,4,55,0,2.028
36,self,5,75,0,2.084
36,self,6,70,0,2.384
36,self,7,50,0,3.026
36,self,8,85,0,2.94
36,self,9,60,0,2.238
36,self,10,65,0,2.2
36,self,11,65,0,2.395
36,self,12,90,1,2.425
36,self,13,70,0,2.282
36,self,14,75,0,2.648
36,self,15,60,0,2.338
36,self,16,80,0,2.09
36,self,17,50,0,2.423
36,self,18,80,0,2.232
36,self,19,85,0,2.667
36,self,20,90,1,3.032
37,self,1,60,0,5.031
37,self,2,55,0,3.464
37,self,3,60,0,2.409
37,self,4,75,0,281.235
37,self,5,65,0,2.65
37,self,6,70,0,2.954
37,self,7,80,1,3.525
37,self,8,70,0,3.143
37,self,9,65,0,3.4
37,self,10,50,0,2.449
37,self,11,85,1,3.053
37,self,12,75,0,3.039
37,self,13,90,1,2.767
37,self,14,90,1,2.709
37,self,15,85,1,2.763
37,self,16,95,1,2.903
37,self,17,50,0,3.02
37,self,18,80,1,2.49
37,self,19,55,0,3.955
37,self,20,95,1,2.647
38,self,1,90,1,3.146
38,self,2,80,1,2.399
38,self,3,50,0,3.461
38,self,4,65,0,4.32
38,self,5,85,1,3.238
38,self,6,50,0,2.15
38,self,7,60,0,1.853
38,self,8,60,0,1.643
38,self,9,70,0,1.431
38,self,10,95,1,2.163
38,self,11,70,0,1.648
38,self,12,55,0,1.641
38,self,13,95,1,2.37
38,self,14,55,0,2.448
38,self,15,75,1,2.02
38,self,16,90,1,1.873
38,self,17,80,1,2.261
38,self,18,65,0,2.161
38,self,19,75,1,2.103
38,self,20,85,1,2.899
39,self,1,70,0,5.029
39,self,2,95,1,3.102
39,self,3,85,0,5.12
39,self,4,90,0,4.824
39,self,5,95,0,3.511
39,self,6,75,0,3.532
39,self,7,65,0,4.145
39,self,8,65,0,3.013
39,self,9,85,0,2.963
39,self,10,70,0,3.539
39,self,11,60,0,3.338
39,self,12,80,0,2.925
39,self,13,90,0,2.406
39,self,14,55,0,2.741
39,self,15,75,0,3.381
39,self,16,50,0,2.884
39,self,17,55,0,2.933
39,self,18,50,0,2.816
39,self,19,80,0,3.198
39,self,20,60,0,2.886
40,self,1,90,0,4.892
40,self,2,75,0,4.652
40,self,3,75,0,3.34
40,self,4,65,0,3.163
40,self,5,85,0,3.053
40,self,6,95,1,6.716
40,self,7,85,0,2.61
40,self,8,50,0,3.634
40,self,9,60,0,2.797
40,self,10,95,1,7.716
40,self,11,70,0,2.593
40,self,12,80,0,2.478
40,self,13,50,0,3.193
40,self,14,65,0,2.352
40,self,15,55,0,2.6
40,self,16,55,0,2.976
40,self,17,90,0,3.504
40,self,18,80,0,2.168
40,self,19,70,0,3.081
40,self,20,60,0,3.467
41,self,1,95,1,4.748
41,self,2,70,0,2.488
41,self,3,90,0,16.26
41,self,4,60,0,4.255
41,self,5,55,0,2.595
41,self,6,65,0,2.416
41,self,7,50,0,3.342
41,self,8,70,0,1.772
41,self,9,60,0,2.279
41,self,10,80,0,1.865
41,self,11,50,0,1.977
41,self,12,65,0,2.407
41,self,13,80,0,1.574
41,self,14,95,0,1.966
41,self,15,85,0,2.174
41,self,16,85,0,8.774
41,self,17,75,0,1.916
41,self,18,55,0,1.827
41,self,19,90,0,1.753
41,self,20,75,0,1.532
42,self,1,70,0,2.776
42,self,2,60,0,2.165
42,self,3,95,1,2.061
42,self,4,80,0,3.739
42,self,5,65,0,2.702
42,self,6,75,0,2.575
42,self,7,70,0,5.423
42,self,8,55,0,1.847
42,self,9,85,0,2.26
42,self,10,60,0,2.071
42,self,11,95,1,2.922
42,self,12,75,0,2.022
42,self,13,55,0,2.232
42,self,14,90,1,2.508
42,self,15,65,0,2.732
42,self,16,50,0,2.06
42,self,17,90,1,2.332
42,self,18,80,0,2.299
42,self,19,85,1,1.728
42,self,20,50,0,1.799
43,self,1,60,0,4.989
43,self,2,80,0,4.148
43,self,3,75,0,3.704
43,self,4,70,0,4.342
43,self,5,60,0,3.376
43,self,6,85,0,3.297
43,self,7,75,0,11.074
43,self,8,50,0,2.475
43,self,9,95,0,4.958
43,self,10,65,0,4.378
43,self,11,70,0,11.855
43,self,12,55,0,3.569
43,self,13,90,0,2.978
43,self,14,50,0,5.026
43,self,15,55,0,5.823
43,self,16,85,0,3.13
43,self,17,65,0,3.141
43,self,18,95,0,2.922
43,self,19,80,0,5.072
43,self,20,90,0,2.874
44,self,1,65,0,1.828
44,self,2,85,0,1.879
44,self,3,50,0,1.955
44,self,4,55,0,1.705
44,self,5,95,0,1.756
44,self,6,80,0,1.497
44,self,7,95,0,2.465
44,self,8,85,0,1.772
44,self,9,70,0,1.838
44,self,10,90,0,2.351
44,self,11,50,0,2.491
44,self,12,60,0,1.497
44,self,13,70,0,2.179
44,self,14,60,0,2.259
44,self,15,65,0,1.704
44,self,16,75,0,1.51
44,self,17,90,0,1.832
44,self,18,80,0,1.44
44,self,19,75,0,1.552
44,self,20,55,0,1.554
45,self,1,80,0,2.752
45,self,2,85,0,1.839
45,self,3,55,0,2.265
45,self,4,90,0,2.773
45,self,5,70,0,2.284
45,self,6,85,0,2.027
45,self,7,65,0,2.231
45,self,8,60,0,2.753
45,self,9,80,0,2.189
45,self,10,50,0,2.079
45,self,11,95,0,1.918
45,self,12,95,0,2.151
45,self,13,75,0,3.055
45,self,14,65,0,1.845
45,self,15,70,0,4.234
45,self,16,50,0,2.574
45,self,17,55,0,2.045
45,self,18,90,0,2.339
45,self,19,60,0,2.736
45,self,20,75,0,2.181
46,self,1,70,0,6.081
46,self,2,80,0,5.233
46,self,3,60,0,7.923
46,self,4,75,0,15.705
46,self,5,60,0,9.275
46,self,6,70,0,6.512
46,self,7,85,0,10.101
46,self,8,95,0,5.172
46,self,9,55,0,15.096
46,self,10,50,0,4.471
46,self,11,65,0,7.72
46,self,12,95,1,6.691
46,self,13,65,0,10.299
46,self,14,55,0,15.518
46,self,15,80,0,55.925
46,self,16,75,0,8.39
46,self,17,90,1,5.489
46,self,18,50,0,13.199
46,self,19,90,1,6.752
46,self,20,85,0,15.122
47,self,1,70,0,3.505
47,self,2,70,0,2.098
47,self,3,50,0,2.98
47,self,4,85,0,3.457
47,self,5,60,0,2.292
47,self,6,65,0,37.465
47,self,7,80,0,4.311
47,self,8,80,0,43.858
47,self,9,60,0,2.19
47,self,10,65,0,4.845
47,self,11,55,0,4.132
47,self,12,95,1,3.558
47,self,13,90,0,2.58
47,self,14,90,0,3.88
47,self,15,95,0,2.423
47,self,16,55,0,6.077
47,self,17,75,0,6.133
47,self,18,85,0,6.302
47,self,19,75,0,2.221
47,self,20,50,0,13.208
48,self,1,90,0,6.82
48,self,2,85,0,2.483
48,self,3,75,0,2.438
48,self,4,60,0,2.446
48,self,5,55,0,2.226
48,self,6,50,0,2.367
48,self,7,65,0,2.464
48,self,8,55,0,2.084
48,self,9,75,0,2.005
48,self,10,80,0,1.829
48,self,11,70,0,2.003
48,self,12,65,0,2.781
48,self,13,70,0,8.992
48,self,14,60,0,1.906
48,self,15,85,0,2.555
48,self,16,95,1,1.887
48,self,17,95,1,1.425
48,self,18,50,0,2.295
48,self,19,90,0,2.426
48,self,20,80,0,1.817
49,self,1,60,0,2.539
49,self,2,90,0,3.794
49,self,3,70,0,2.255
49,self,4,95,1,3.165
49,self,5,50,0,2.069
49,self,6,55,0,2.233
49,self,7,55,0,2.893
49,self,8,75,0,2.296
49,self,9,65,0,2.451
49,self,10,95,0,2.019
49,self,11,90,0,1.574
49,self,12,50,0,2.025
49,self,13,60,0,2.178
49,self,14,65,0,2.592
49,self,15,85,0,2.573
49,self,16,75,0,2.118
49,self,17,70,0,2.258
49,self,18,80,0,1.851
49,self,19,85,0,2.39
49,self,20,80,0,2.063
50,self,1,90,1,2.022
50,self,2,85,1,2.46
50,self,3,95,1,1.56
50,self,4,60,0,2.496
50,self,5,50,0,2.639
50,self,6,60,0,1.713
50,self,7,75,0,1.899
50,self,8,50,0,1.675
50,self,9,90,1,1.797
50,self,10,55,0,1.698
50,self,11,80,1,2.463
50,self,12,55,0,2.304
50,self,13,70,0,1.784
50,self,14,65,0,2.243
50,self,15,65,0,2.1
50,self,16,80,1,2.738
50,self,17,95,1,2.428
50,self,18,85,1,2.6
50,self,19,75,0,1.983
50,self,20,70,0,2.219
51,self,1,80,0,2.8
51,self,2,80,0,2.946
51,self,3,90,0,4.016
51,self,4,75,0,2.747
51,self,5,85,0,2.343
51,self,6,95,0,2.422
51,self,7,70,0,2.367
51,self,8,65,0,2.421
51,self,9,95,0,3.193
51,self,10,90,0,2.38
51,self,11,50,0,2.64
51,self,12,55,0,2.911
51,self,13,70,0,2.042
51,self,14,65,0,2.344
51,self,15,50,0,2.072
51,self,16,55,0,3.096
51,self,17,75,0,2.336
51,self,18,60,0,2.038
51,self,19,60,0,2.079
51,self,20,85,0,2.402
52,self,1,50,0,2.642
52,self,2,70,0,2.211
52,self,3,95,0,3.085
52,self,4,80,0,2.749
52,self,5,75,0,2.194
52,self,6,75,0,1.805
52,self,7,50,0,2.75
52,self,8,65,0,2.682
52,self,9,90,0,2.985
52,self,10,55,0,4.131
52,self,11,55,0,2.035
52,self,12,60,0,2.719
52,self,13,65,0,2.696
52,self,14,60,0,2.081
52,self,15,95,0,2.56
52,self,16,90,0,2.526
52,self,17,85,0,2.565
52,self,18,85,0,1.839
52,self,19,70,0,1.811
52,self,20,80,0,2.856
54,self,1,50,0,3.568
54,self,2,50,0,2.239
54,self,3,55,1,3.141
54,self,4,80,1,2.354
54,self,5,70,1,2.641
54,self,6,75,1,2.541
54,self,7,90,1,9.269
54,self,8,65,1,2.667
54,self,9,95,1,2.486
54,self,10,85,1,2.431
54,self,11,85,1,2.444
54,self,12,60,1,1.867
54,self,13,60,1,2.644
54,self,14,65,1,2.874
54,self,15,95,1,2.599
54,self,16,70,1,3.133
54,self,17,55,1,2.416
54,self,18,80,1,2.859
54,self,19,90,1,1.945
54,self,20,75,1,3.01
55,self,1,85,1,5.29
55,self,2,50,0,2.833
55,self,3,70,0,2.722
55,self,4,85,1,3.964
55,self,5,55,0,1.584
55,self,6,75,0,1.508
55,self,7,95,1,2.015
55,self,8,65,0,1.833
55,self,9,65,0,1.765
55,self,10,75,0,2.823
55,self,11,95,1,2.452
55,self,12,90,1,1.492
55,self,13,60,0,1.453
55,self,14,50,0,2.052
55,self,15,60,0,1.807
55,self,16,55,0,2.074
55,self,17,70,0,9.03
55,self,18,80,0,2.913
55,self,19,90,1,1.837
55,self,20,80,1,1.822
56,self,1,85,0,2.993
56,self,2,80,0,2.827
56,self,3,80,1,1.954
56,self,4,95,1,3.684
56,self,5,75,0,1.941
56,self,6,60,0,1.615
56,self,7,50,0,1.854
56,self,8,70,0,1.338
56,self,9,55,0,1.821
56,self,10,50,0,1.735
56,self,11,65,0,2.251
56,self,12,55,0,1.981
56,self,13,95,1,1.748
56,self,14,75,0,1.766
56,self,15,60,0,1.346
56,self,16,70,0,1.224
56,self,17,90,1,1.682
56,self,18,85,1,2.48
56,self,19,65,0,2.562
56,self,20,90,1,1.73
57,self,1,55,0,2.734
57,self,2,80,0,3.125
57,self,3,90,0,1.836
57,self,4,85,0,1.772
57,self,5,60,0,1.736
57,self,6,55,0,1.996
57,self,7,50,0,2.012
57,self,8,65,0,1.657
57,self,9,95,1,2.499
57,self,10,95,1,2.306
57,self,11,85,0,2.66
57,self,12,75,0,2.094
57,self,13,75,0,4.569
57,self,14,65,0,1.924
57,self,15,80,0,2.245
57,self,16,50,0,1.652
57,self,17,70,0,1.828
57,self,18,70,0,1.847
57,self,19,60,0,2.156
57,self,20,90,0,1.598
58,self,1,80,0,47.546
58,self,2,65,0,3.059
58,self,3,65,0,2.905
58,self,4,55,0,2.442
58,self,5,75,0,2.244
58,self,6,55,0,3.463
58,self,7,80,0,2.435
58,self,8,85,0,2.39
58,self,9,50,0,2.937
58,self,10,70,0,2.422
58,self,11,60,0,2.576
58,self,12,95,1,3.171
58,self,13,95,1,2.101
58,self,14,70,0,3.051
58,self,15,75,0,2.596
58,self,16,90,1,4.484
58,self,17,90,1,2.874
58,self,18,85,0,1.948
58,self,19,60,0,1.892
58,self,20,50,0,1.806
59,self,1,65,0,4.078
59,self,2,85,0,2.895
59,self,3,55,0,3.922
59,self,4,50,0,2.891
59,self,5,60,0,3.587
59,self,6,70,0,2.365
59,self,7,80,0,2.696
59,self,8,85,0,2.325
59,self,9,80,0,3.152
59,self,10,75,0,2.589
59,self,11,55,0,3.208
59,self,12,95,1,4.25
59,self,13,95,0,2.413
59,self,14,50,0,2.639
59,self,15,65,0,3.12
59,self,16,60,0,2.896
59,self,17,75,0,2.557
59,self,18,90,0,3.059
59,self,19,70,0,2.687
59,self,20,90,0,3.065
60,self,1,70,1,4.401
60,self,2,90,1,2.827
60,self,3,90,0,2.859
60,self,4,65,1,3.464
60,self,5,85,1,2.95
60,self,6,60,1,2.736
60,self,7,80,1,3.484
60,self,8,75,1,2.246
60,self,9,65,1,2.672
60,self,10,85,1,3.582
60,self,11,50,0,2.655
60,self,12,95,1,3.588
60,self,13,60,1,3.248
60,self,14,75,1,2.751
60,self,15,55,1,3.789
60,self,16,80,1,2.604
60,self,17,95,1,2.905
60,self,18,70,1,3.379
60,self,19,55,1,2.056
60,self,20,50,0,2.265
61,self,1,80,1,2.316
61,self,2,60,1,9.562
61,self,3,50,0,2.238
61,self,4,70,1,2.112
61,self,5,75,1,1.655
61,self,6,90,1,1.993
61,self,7,95,1,2.231
61,self,8,65,1,2.37
61,self,9,65,1,1.976
61,self,10,55,0,2.353
61,self,11,70,1,2.73
61,self,12,55,0,1.538
61,self,13,50,0,2.265
61,self,14,85,1,1.578
61,self,15,95,1,2.437
61,self,16,80,1,2.862
61,self,17,85,1,1.609
61,self,18,75,1,1.623
61,self,19,60,1,1.196
61,self,20,90,1,1.864
62,self,1,60,1,4.652
62,self,2,75,0,1.785
62,self,3,95,1,2.709
62,self,4,95,1,3.455
62,self,5,90,1,2.807
62,self,6,70,1,2.823
62,self,7,85,1,1.988
62,self,8,65,1,2.46
62,self,9,50,0,1.843
62,self,10,65,1,3.616
62,self,11,75,1,2.484
62,self,12,70,1,4.639
62,self,13,50,0,4.731
62,self,14,80,1,2.196
62,self,15,90,1,2.196
62,self,16,60,1,2.711
62,self,17,85,1,2.615
62,self,18,80,1,8.461
62,self,19,55,1,2.622
62,self,20,55,1,2.638
63,self,1,95,0,6.324
63,self,2,65,0,3.711
63,self,3,85,0,2.114
63,self,4,90,0,2.659
63,self,5,55,0,2.25
63,self,6,70,0,2.488
63,self,7,95,0,1.983
63,self,8,75,0,2.615
63,self,9,90,0,2.096
63,self,10,75,0,2.03
63,self,11,65,0,3.852
63,self,12,60,0,2.184
63,self,13,50,0,2.478
63,self,14,85,0,1.985
63,self,15,50,0,2.225
63,self,16,60,0,2.44
63,self,17,80,0,1.765
63,self,18,80,0,1.785
63,self,19,55,0,1.929
63,self,20,70,0,2.249
64,self,1,80,1,3.563
64,self,2,75,1,2.533
64,self,3,60,0,3.432
64,self,4,90,1,2.491
64,self,5,50,0,2.584
64,self,6,55,0,2.126
64,self,7,50,0,2.222
64,self,8,75,1,1.979
64,self,9,65,1,2.03
64,self,10,80,1,1.982
64,self,11,95,1,1.815
64,self,12,65,1,2.401
64,self,13,70,1,2.277
64,self,14,55,0,2.455
64,self,15,95,1,3.337
64,self,16,70,1,2.484
64,self,17,60,0,2.49
64,self,18,85,1,2.22
64,self,19,85,1,2.31
64,self,20,90,1,2.526
65,self,1,60,1,4.031
65,self,2,80,1,1.804
65,self,3,80,1,4.301
65,self,4,90,1,2.649
65,self,5,90,1,1.925
65,self,6,85,1,2.316
65,self,7,55,1,2.921
65,self,8,50,0,2.247
65,self,9,60,1,2.1
65,self,10,65,1,2.568
65,self,11,55,1,3.256
65,self,12,70,1,2.094
65,self,13,75,1,2.679
65,self,14,50,0,2.622
65,self,15,65,1,1.987
65,self,16,95,1,3.053
65,self,17,85,1,2.094
65,self,18,70,1,1.922
65,self,19,95,1,1.998
65,self,20,75,1,2.205
66,self,1,65,0,3.436
66,self,2,55,0,3.578
66,self,3,75,0,3.604
66,self,4,85,0,2.269
66,self,5,75,0,2.012
66,self,6,65,0,2.367
66,self,7,60,0,2.219
66,self,8,55,0,1.653
66,self,9,95,1,2.652
66,self,10,80,0,2.128
66,self,11,70,0,2.245
66,self,12,95,1,2.735
66,self,13,60,0,1.919
66,self,14,80,0,2.394
66,self,15,85,0,1.972
66,self,16,50,0,2.254
66,self,17,70,0,2.047
66,self,18,50,0,1.966
66,self,19,90,1,2.242
66,self,20,90,1,1.96
67,self,1,80,0,3.144
67,self,2,95,0,2.853
67,self,3,50,0,3.941
67,self,4,50,0,2.613
67,self,5,85,0,2.619
67,self,6,55,0,2.566
67,self,7,60,0,2.199
67,self,8,90,0,2.78
67,self,9,65,0,2.677
67,self,10,75,0,2.763
67,self,11,85,0,2.753
67,self,12,70,0,2.242
67,self,13,75,0,2.193
67,self,14,95,0,2.602
67,self,15,90,0,2.276
67,self,16,65,0,2.777
67,self,17,70,0,2.519
67,self,18,60,0,2.998
67,self,19,80,0,2.088
67,self,20,55,0,3.373
68,self,1,85,1,3.895
68,self,2,50,0,3.166
68,self,3,80,1,4.745
68,self,4,90,1,2.518
68,self,5,55,0,2.628
68,self,6,60,0,2.089
68,self,7,80,1,3.323
68,self,8,50,0,3.177
68,self,9,75,1,3.961
68,self,10,65,0,12.191
68,self,11,65,1,3.285
68,self,12,60,0,2.522
68,self,13,95,1,7.491
68,self,14,55,0,2.195
68,self,15,70,1,6.003
68,self,16,95,1,2.541
68,self,17,75,1,3.227
68,self,18,85,1,2.029
68,self,19,90,1,2.933
68,self,20,70,1,2.538
69,self,1,60,0,4.124
69,self,2,55,0,3.282
69,self,3,80,0,5.714
69,self,4,55,0,3.071
69,self,5,75,0,2.461
69,self,6,65,0,2.683
69,self,7,50,0,2.969
69,self,8,65,0,3.502
69,self,9,85,1,5.623
69,self,10,90,1,2.569
69,self,11,50,0,2.324
69,self,12,75,0,2.199
69,self,13,70,0,2.147
69,self,14,85,0,3.122
69,self,15,60,0,2.064
69,self,16,95,1,3.047
69,self,17,90,1,4.396
69,self,18,70,0,2.053
69,self,19,80,0,2.998
69,self,20,95,1,3.772
70,self,1,80,1,7.173
70,self,2,75,0,5.495
70,self,3,50,0,2.976
70,self,4,90,1,4.643
70,self,5,65,0,3.426
70,self,6,85,1,4.118
70,self,7,70,0,3.119
70,self,8,50,0,3.298
70,self,9,70,0,3.512
70,self,10,90,1,3.155
70,self,11,60,0,3.12
70,self,12,65,0,3.069
70,self,13,55,0,3.1
70,self,14,75,1,4.109
70,self,15,80,1,3.649
70,self,16,55,0,3.031
70,self,17,95,1,3.129
70,self,18,95,1,2.812
70,self,19,60,0,2.731
70,self,20,85,1,2.75
71,self,1,90,0,7.242
71,self,2,95,0,3.546
71,self,3,50,0,101.584
71,self,4,50,0,3.003
71,self,5,90,0,3.102
71,self,6,85,0,1.707
71,self,7,80,0,1.993
71,self,8,80,0,1.651
71,self,9,60,0,1.876
71,self,10,95,0,2.17
71,self,11,65,0,1.553
71,self,12,60,0,2.442
71,self,13,70,0,1.868
71,self,14,85,0,1.395
71,self,15,70,0,1.827
71,self,16,55,0,1.777
71,self,17,75,0,2.691
71,self,18,55,0,1.56
71,self,19,75,0,2.368
71,self,20,65,0,1.312
73,self,1,75,0,5.355
73,self,2,85,0,4.496
73,self,3,50,0,3.247
73,self,4,60,0,4.194
73,self,5,80,0,2.632
73,self,6,95,1,4.786
73,self,7,95,1,2.996
73,self,8,90,1,3.587
73,self,9,80,0,3.74
73,self,10,55,0,3.161
73,self,11,65,0,2.966
73,self,12,75,0,3.092
73,self,13,90,1,3.284
73,self,14,50,0,3.697
73,self,15,85,0,3.358
73,self,16,70,0,3.565
73,self,17,55,0,3.21
73,self,18,65,0,3.078
73,self,19,60,0,3.407
73,self,20,70,0,6.093
74,self,1,60,0,6.012
74,self,2,75,0,3.759
74,self,3,95,1,3.349
74,self,4,50,0,5.306
74,self,5,70,0,4.677
74,self,6,90,1,4.164
74,self,7,60,0,2.297
74,self,8,85,0,3.087
74,self,9,80,0,2.152
74,self,10,85,1,3.73
74,self,11,65,0,2.956
74,self,12,70,0,2.16
74,self,13,55,0,3.068
74,self,14,90,0,2.594
74,self,15,55,0,3.251
74,self,16,80,0,2.535
74,self,17,95,1,3.179
74,self,18,65,0,2.949
74,self,19,75,0,2.095
74,self,20,50,0,3.316
75,self,1,70,0,5.642
75,self,2,65,0,3.793
75,self,3,80,0,5.023
75,self,4,85,0,4.263
75,self,5,70,0,3.135
75,self,6,55,0,2.666
75,self,7,80,0,2.728
75,self,8,65,0,3.474
75,self,9,60,0,2.972
75,self,10,95,1,5.353
75,self,11,60,0,3.51
75,self,12,95,1,5.006
75,self,13,50,0,4.4
75,self,14,90,0,2.65
75,self,15,55,0,3.046
75,self,16,90,0,3.027
75,self,17,75,0,4.058
75,self,18,50,0,2.646
75,self,19,85,0,3.18
75,self,20,75,0,3.188
76,self,1,70,0,2.449
76,self,2,85,0,2.36
76,self,3,60,0,4.39
76,self,4,55,0,3.007
76,self,5,75,0,2.461
76,self,6,80,0,2.657
76,self,7,90,0,2.131
76,self,8,90,0,3.31
76,self,9,75,0,3.364
76,self,10,65,0,3.036
76,self,11,95,0,1.968
76,self,12,55,0,5.863
76,self,13,50,0,2.691
76,self,14,85,0,7.067
76,self,15,60,0,2.451
76,self,16,65,0,3.012
76,self,17,80,0,2.972
76,self,18,95,0,2.783
76,self,19,70,0,2.994
76,self,20,50,0,2.857
77,self,1,70,0,3.847
77,self,2,75,0,2.404
77,self,3,50,0,2.555
77,self,4,70,0,2.997
77,self,5,75,0,2.689
77,self,6,95,1,2.885
77,self,7,90,1,1.474
77,self,8,60,0,3.443
77,self,9,65,0,1.445
77,self,10,50,0,54.903
77,self,11,80,0,3.978
77,self,12,95,1,4.49
77,self,13,85,1,3.89
77,self,14,65,0,2.65
77,self,15,80,0,1.84
77,self,16,90,1,38.129
77,self,17,85,0,2.002
77,self,18,55,0,2.125
77,self,19,60,0,1.7
77,self,20,55,0,1.457
78,self,1,95,0,3.612
78,self,2,75,0,2.876
78,self,3,90,0,2.081
78,self,4,50,0,6.957
78,self,5,65,0,2.678
78,self,6,55,0,2.184
78,self,7,85,0,5.997
78,self,8,50,0,2.074
78,self,9,60,0,2.22
78,self,10,80,0,2.023
78,self,11,70,0,2.054
78,self,12,75,0,2.544
78,self,13,85,0,1.848
78,self,14,60,0,2.671
78,self,15,65,0,1.993
78,self,16,90,0,2.563
78,self,17,55,0,1.577
78,self,18,80,0,2.411
78,self,19,95,0,1.894
78,self,20,70,0,2.168
79,self,1,95,0,12.593
79,self,2,65,0,3.763
79,self,3,85,0,4.522
79,self,4,50,0,5.19
79,self,5,80,0,4.055
79,self,6,70,0,3.094
79,self,7,70,0,2.965
79,self,8,55,0,3.55
79,self,9,80,0,6.29
79,self,10,85,0,2.807
79,self,11,55,0,3.528
79,self,12,60,0,2.243
79,self,13,90,0,2.342
79,self,14,75,0,1.922
79,self,15,95,0,2.449
79,self,16,90,0,1.898
79,self,17,75,0,2.513
79,self,18,50,0,4.886
79,self,19,60,0,2.44
79,self,20,65,0,2.677
80,self,1,80,0,2.817
80,self,2,90,0,3.426
80,self,3,55,0,4.721
80,self,4,75,0,3.024
80,self,5,85,0,2.311
80,self,6,50,0,2.192
80,self,7,50,0,1.857
80,self,8,60,0,2.387
80,self,9,65,0,2.159
80,self,10,80,0,2.274
80,self,11,85,0,2.235
80,self,12,95,0,2.16
80,self,13,75,0,3.774
80,self,14,70,0,1.745
80,self,15,65,0,2.146
80,self,16,95,0,2.177
80,self,17,60,0,2.521
80,self,18,55,0,2.229
80,self,19,70,0,1.959
80,self,20,90,0,2.215
81,self,1,85,1,4.421
81,self,2,75,1,3.862
81,self,3,50,0,3.694
81,self,4,65,1,4.012
81,self,5,60,0,4.275
81,self,6,75,1,4.2
81,self,7,85,1,3.776
81,self,8,95,1,3.405
81,self,9,55,0,3.471
81,self,10,70,1,3.169
81,self,11,65,1,5.29
81,self,12,70,1,4.035
81,self,13,95,1,3.499
81,self,14,80,1,2.955
81,self,15,55,0,3.373
81,self,16,50,0,2.661
81,self,17,80,1,3.619
81,self,18,60,0,3.953
81,self,19,90,1,3.658
81,self,20,90,1,3.804
82,self,1,75,0,10.06
82,self,2,70,0,5.274
82,self,3,90,0,7.491
82,self,4,70,0,5.186
82,self,5,95,0,4.147
82,self,6,80,0,5.188
82,self,7,55,0,5.219
82,self,8,60,0,4.915
82,self,9,75,0,4.676
82,self,10,60,0,4.849
82,self,11,85,0,6.469
82,self,12,65,0,4.3
82,self,13,90,0,4.935
82,self,14,80,0,5.569
82,self,15,85,0,6.291
82,self,16,50,0,3.764
82,self,17,65,0,7.014
82,self,18,50,0,6.348
82,self,19,95,0,4.788
82,self,20,55,0,7.258
83,self,1,70,0,2.357
83,self,2,90,1,2.296
83,self,3,80,0,2.287
83,self,4,55,0,2.606
83,self,5,60,0,2.164
83,self,6,60,0,2.869
83,self,7,75,0,1.644
83,self,8,75,0,2.393
83,self,9,85,1,2.167
83,self,10,65,0,2.646
83,self,11,90,1,3.839
83,self,12,85,1,2.372
83,self,13,95,1,3.893
83,self,14,50,0,2.071
83,self,15,65,0,1.955
83,self,16,95,1,2.545
83,self,17,55,0,1.984
83,self,18,50,0,2.683
83,self,19,80,0,2.157
83,self,20,70,0,3.436
85,self,1,90,1,4.549
85,self,2,55,0,1.953
85,self,3,65,0,2.341
85,self,4,80,1,2.836
85,self,5,90,1,1.492
85,self,6,95,1,1.301
85,self,7,85,1,1.508
85,self,8,85,1,2.344
85,self,9,95,1,1.165
85,self,10,60,0,1.382
85,self,11,75,1,1.723
85,self,12,50,0,2.133
85,self,13,65,1,1.407
85,self,14,70,1,2.551
85,self,15,80,1,1.658
85,self,16,50,0,1.155
85,self,17,55,0,1.407
85,self,18,70,1,2.506
85,self,19,75,1,1.804
85,self,20,60,0,1.339
86,self,1,65,0,3.049
86,self,2,90,1,4.54
86,self,3,75,0,10.558
86,self,4,60,0,2.652
86,self,5,95,1,2.624
86,self,6,70,0,2.895
86,self,7,85,1,3.401
86,self,8,85,0,3.002
86,self,9,55,0,2.842
86,self,10,70,0,20.955
86,self,11,65,0,2.004
86,self,12,95,1,2.285
86,self,13,60,0,2.683
86,self,14,50,0,2.014
86,self,15,80,0,2.565
86,self,16,75,0,2.388
86,self,17,55,0,7.643
86,self,18,80,1,3.016
86,self,19,90,1,2.321
86,self,20,50,0,2.356
87,self,1,85,0,2.842
87,self,2,70,0,2.847
87,self,3,65,0,4.76
87,self,4,90,0,3.594
87,self,5,80,0,2.986
87,self,6,70,0,2.39
87,self,7,75,0,5.057
87,self,8,90,0,2.975
87,self,9,60,0,4.035
87,self,10,50,0,2.4
87,self,11,50,0,2.37
87,self,12,65,0,2.451
87,self,13,55,0,3.218
87,self,14,75,0,1.905
87,self,15,95,1,4.874
87,self,16,55,0,2.462
87,self,17,95,1,4.597
87,self,18,60,0,2.02
87,self,19,80,0,2.907
87,self,20,85,0,2.461
88,self,1,95,0,5.896
88,self,2,65,0,3.271
88,self,3,95,0,11.32
88,self,4,85,0,7.362
88,self,5,85,0,2.144
88,self,6,80,0,2.118
88,self,7,50,0,2.678
88,self,8,60,0,2.542
88,self,9,80,0,1.74
88,self,10,65,0,2.627
88,self,11,55,0,2.004
88,self,12,75,0,2.455
88,self,13,90,0,2.923
88,self,14,70,0,2.343
88,self,15,50,0,4.461
88,self,16,55,0,2.409
88,self,17,90,0,2.115
88,self,18,60,0,2.643
88,self,19,70,0,2.121
88,self,20,75,0,2.131
89,self,1,85,1,4.083
89,self,2,70,1,1.634
89,self,3,60,1,8.44
89,self,4,75,1,1.937
89,self,5,60,1,2.124
89,self,6,55,0,2.471
89,self,7,90,1,1.344
89,self,8,50,0,1.982
89,self,9,65,1,1.481
89,self,10,55,0,2.249
89,self,11,85,1,2.01
89,self,12,80,1,2.047
89,self,13,90,1,1.46
89,self,14,95,1,4.064
89,self,15,95,1,3.35
89,self,16,80,1,2.128
89,self,17,70,1,1.819
89,self,18,65,1,4.826
89,self,19,75,1,1.439
89,self,20,50,0,2.407
90,self,1,80,0,6.177
90,self,2,60,0,4.049
90,self,3,75,0,2.875
90,self,4,90,0,2.67
90,self,5,75,0,2.597
90,self,6,80,0,6.442
90,self,7,95,0,3.964
90,self,8,70,0,3.02
90,self,9,90,0,2.461
90,self,10,50,0,2.415
90,self,11,60,0,2.106
90,self,12,55,0,2.352
90,self,13,85,0,2.955
90,self,14,65,0,2.348
90,self,15,70,0,2.192
90,self,16,95,0,2.699
90,self,17,55,0,2.028
90,self,18,50,0,2.531
90,self,19,85,0,2.898
90,self,20,65,0,2.285
91,self,1,55,0,3.948
91,self,2,70,0,10.241
91,self,3,95,0,7.524
91,self,4,50,0,6.661
91,self,5,75,0,7.196
91,self,6,65,0,3.427
91,self,7,75,0,3.866
91,self,8,90,0,4.958
91,self,9,90,0,3.243
91,self,10,60,0,5.163
91,self,11,80,0,3.023
91,self,12,85,0,3.104
91,self,13,85,0,5.271
91,self,14,95,0,3.835
91,self,15,80,0,2.443
91,self,16,55,0,2.349
91,self,17,50,0,2.688
91,self,18,60,0,3.024
91,self,19,65,0,2.765
91,self,20,70,0,2.584
92,self,1,85,0,8.269
92,self,2,50,0,5.191
92,self,3,70,0,5.312
92,self,4,90,0,13.868
92,self,5,95,0,4.791
92,self,6,55,0,4.349
92,self,7,65,0,3.998
92,self,8,75,0,4.742
92,self,9,90,0,5.043
92,self,10,95,0,5.804
92,self,11,60,0,3.784
92,self,12,80,0,4.821
92,self,13,70,0,4.258
92,self,14,60,0,3.502
92,self,15,55,0,4.77
92,self,16,85,0,4.893
92,self,17,75,0,3.71
92,self,18,80,0,3.718
92,self,19,65,0,4.332
92,self,20,50,0,4.53
93,self,1,95,1,24.744
93,self,2,85,0,9.826
93,self,3,55,0,6.471
93,self,4,90,0,2.937
93,self,5,80,0,3.189
93,self,6,65,0,3.284
93,self,7,55,0,3.719
93,self,8,70,0,3.167
93,self,9,80,0,3.75
93,self,10,60,0,3.557
93,self,11,90,0,2.932
93,self,12,85,0,6.733
93,self,13,75,0,4.133
93,self,14,50,0,3.386
93,self,15,50,0,2.875
93,self,16,70,0,4.431
93,self,17,65,0,4.768
93,self,18,60,0,3.784
93,self,19,95,1,4.505
93,self,20,75,0,3.013
94,self,1,65,0,5.362
94,self,2,95,0,4.424
94,self,3,65,0,3.389
94,self,4,70,0,2.826
94,self,5,75,0,2.89
94,self,6,85,0,2.986
94,self,7,60,0,2.595
94,self,8,90,0,2.805
94,self,9,80,0,3.011
94,self,10,50,0,2.86
94,self,11,85,0,2.494
94,self,12,90,0,3.533
94,self,13,80,0,3.011
94,self,14,70,0,2.734
94,self,15,75,0,2.681
94,self,16,55,0,2.448
94,self,17,60,0,2.609
94,self,18,50,0,2.266
94,self,19,55,0,2.371
94,self,20,95,0,2.454
95,self,1,70,0,6.125
95,self,2,65,0,6.592
95,self,3,80,0,7
95,self,4,90,0,9.715
95,self,5,65,0,4.664
95,self,6,90,0,4.543
95,self,7,50,0,5.08
95,self,8,55,0,4.624
95,self,9,75,0,4.555
95,self,10,50,0,4.722
95,self,11,70,0,3.772
95,self,12,75,0,3.234
95,self,13,55,0,3.98
95,self,14,85,0,4.018
95,self,15,95,0,4.141
95,self,16,80,0,4.271
95,self,17,85,0,4.143
95,self,18,60,0,3.952
95,self,19,60,0,3.434
95,self,20,95,0,3.833
97,self,1,75,0,5.629
97,self,2,95,0,13.033
97,self,3,90,0,14.369
97,self,4,80,0,4.491
97,self,5,90,0,3.754
97,self,6,85,0,7.771
97,self,7,80,0,4.31
97,self,8,65,0,16.022
97,self,9,50,0,4.062
97,self,10,60,0,27.475
97,self,11,75,0,4.195
97,self,12,60,0,4.446
97,self,13,55,0,7.822
97,self,14,70,0,3.746
97,self,15,70,0,4.515
97,self,16,50,0,4.971
97,self,17,95,0,5.126
97,self,18,85,0,3.662
97,self,19,65,0,3.808
97,self,20,55,0,3.94
98,self,1,90,1,2.844
98,self,2,65,1,3.128
98,self,3,50,0,9.258
98,self,4,80,1,2.845
98,self,5,75,1,2.277
98,self,6,65,1,3.158
98,self,7,55,1,2.548
98,self,8,95,1,3.213
98,self,9,90,1,2.395
98,self,10,70,1,2.423
98,self,11,55,1,2.137
98,self,12,75,1,2.481
98,self,13,80,1,3
98,self,14,85,1,2.428
98,self,15,60,1,2.91
98,self,16,95,1,2.041
98,self,17,60,1,2.351
98,self,18,70,1,2.206
98,self,19,50,0,2.675
98,self,20,85,1,1.942
99,self,1,75,0,4.254
99,self,2,70,0,2.556
99,self,3,65,0,16.67
99,self,4,75,0,4.723
99,self,5,80,0,3.282
99,self,6,55,0,2.774
99,self,7,65,0,7.353
99,self,8,70,0,2.824
99,self,9,95,1,3.266
99,self,10,85,0,2.809
99,self,11,95,1,8.97
99,self,12,55,0,5.179
99,self,13,50,0,2.354
99,self,14,85,0,3.943
99,self,15,90,1,4.383
99,self,16,60,0,3.239
99,self,17,90,1,2.777
99,self,18,60,0,2.216
99,self,19,50,0,3.147
99,self,20,80,0,2.453
100,self,1,70,0,6.37
100,self,2,75,0,8.52
100,self,3,70,0,3.648
100,self,4,95,1,4.358
100,self,5,50,0,3.414
100,self,6,90,1,4.39
100,self,7,50,0,4.239
100,self,8,60,0,3.229
100,self,9,85,1,5.116
100,self,10,80,1,4.805
100,self,11,80,1,4.403
100,self,12,75,0,3.044
100,self,13,65,0,3.069
100,self,14,85,1,4.033
100,self,15,90,1,3.53
100,self,16,65,0,3.693
100,self,17,55,0,3.817
100,self,18,55,0,3.066
100,self,19,95,1,3.967
100,self,20,60,0,3.926
101,self,1,50,0,3.28
101,self,2,65,0,2.22
101,self,3,65,0,3.298
101,self,4,95,1,3.124
101,self,5,85,1,1.84
101,self,6,55,0,2.123
101,self,7,55,0,2.155
101,self,8,75,1,3.42
101,self,9,60,0,3.077
101,self,10,90,1,3.095
101,self,11,75,1,2.283
101,self,12,50,0,2.708
101,self,13,85,1,1.874
101,self,14,60,0,2.776
101,self,15,80,1,2.861
101,self,16,70,1,1.997
101,self,17,80,1,2.667
101,self,18,95,1,3.139
101,self,19,90,1,2.523
101,self,20,70,1,3.162
102,self,1,95,0,3.411
102,self,2,90,0,2.394
102,self,3,50,0,3.792
102,self,4,70,0,2.577
102,self,5,80,0,3.609
102,self,6,55,0,2.775
102,self,7,90,0,2.441
102,self,8,75,0,2.198
102,self,9,65,0,2.183
102,self,10,75,0,2.607
102,self,11,65,0,2.235
102,self,12,50,0,1.686
102,self,13,85,0,2.419
102,self,14,95,0,3.582
102,self,15,60,0,2.036
102,self,16,70,0,2.169
102,self,17,80,0,2.784
102,self,18,85,0,4.065
102,self,19,60,0,2.468
102,self,20,55,0,12.396
103,self,1,70,0,2.882
103,self,2,55,0,1.827
103,self,3,85,0,2.019
103,self,4,60,0,1.601
103,self,5,50,0,2.022
103,self,6,95,0,2.722
103,self,7,90,0,6.235
103,self,8,90,0,2.721
103,self,9,75,0,1.933
103,self,10,50,0,1.987
103,self,11,85,0,2.562
103,self,12,80,0,2.882
103,self,13,65,0,1.342
103,self,14,95,0,1.939
103,self,15,70,0,1.528
103,self,16,75,0,3.374
103,self,17,55,0,2.727
103,self,18,65,0,1.849
103,self,19,80,0,1.507
103,self,20,60,0,1.609
104,self,1,55,0,4.657
104,self,2,75,0,3.516
104,self,3,65,0,3.265
104,self,4,95,1,7.414
104,self,5,55,0,2.696
104,self,6,65,0,2.575
104,self,7,80,0,3.434
104,self,8,60,0,2.583
104,self,9,85,0,2.614
104,self,10,90,0,2.79
104,self,11,90,0,2.808
104,self,12,60,0,3.129
104,self,13,50,0,2.668
104,self,14,75,0,2.874
104,self,15,80,0,2.491
104,self,16,50,0,4.364
104,self,17,70,0,2.15
104,self,18,85,0,2.287
104,self,19,95,1,3.8
104,self,20,70,0,2.325
105,self,1,90,0,7.241
105,self,2,50,0,8.127
105,self,3,95,0,4.554
105,self,4,50,0,3.667
105,self,5,85,0,2.841
105,self,6,75,0,2.453
105,self,7,55,0,2.525
105,self,8,65,0,3.075
105,self,9,80,0,2.307
105,self,10,75,0,2.405
105,self,11,60,0,2.248
105,self,12,65,0,3.337
105,self,13,95,1,9.902
105,self,14,60,0,2.209
105,self,15,85,0,2.283
105,self,16,70,0,2.921
105,self,17,90,1,2.853
105,self,18,70,0,2.96
105,self,19,55,0,2.592
105,self,20,80,0,2.756
106,self,1,60,0,3.538
106,self,2,80,0,2.121
106,self,3,50,0,2.464
106,self,4,65,0,2.133
106,self,5,90,0,2.02
106,self,6,85,0,1.696
106,self,7,80,0,2.289
106,self,8,95,0,2.666
106,self,9,55,0,3.75
106,self,10,95,0,2.321
106,self,11,70,0,2.23
106,self,12,75,0,1.67
106,self,13,50,0,2
106,self,14,65,0,2.398
106,self,15,55,0,2.389
106,self,16,75,0,1.953
106,self,17,60,0,2.575
106,self,18,90,0,2.007
106,self,19,70,0,2.269
106,self,20,85,0,2.205
107,self,1,55,0,6.061
107,self,2,75,1,2.917
107,self,3,80,1,2.656
107,self,4,90,1,2.972
107,self,5,80,0,2.709
107,self,6,70,0,3.01
107,self,7,85,1,2.732
107,self,8,95,1,1.861
107,self,9,50,0,2.033
107,self,10,50,0,2.042
107,self,11,55,0,2.161
107,self,12,65,1,2.593
107,self,13,60,1,2.308
107,self,14,85,1,2.101
107,self,15,65,0,2.008
107,self,16,60,0,1.86
107,self,17,75,1,1.992
107,self,18,90,0,1.876
107,self,19,70,1,1.901
107,self,20,95,1,1.681
108,self,1,60,0,4.513
108,self,2,85,1,4.441
108,self,3,50,0,2.435
108,self,4,60,0,3.547
108,self,5,75,1,3.126
108,self,6,70,1,4.035
108,self,7,50,0,3.485
108,self,8,80,1,2.744
108,self,9,55,0,2.115
108,self,10,55,0,2.159
108,self,11,75,1,2.523
108,self,12,95,1,3.682
108,self,13,65,0,3.335
108,self,14,65,0,3.106
108,self,15,70,0,1.938
108,self,16,95,1,2.411
108,self,17,85,1,3.4
108,self,18,80,1,2.229
108,self,19,90,1,1.848
108,self,20,90,1,2.726
109,self,1,65,0,5.483
109,self,2,80,1,2.733
109,self,3,90,1,4.216
109,self,4,85,0,4.36
109,self,5,60,0,2.401
109,self,6,55,0,1.792
109,self,7,50,0,1.856
109,self,8,90,1,1.82
109,self,9,80,1,2.257
109,self,10,75,0,2.722
109,self,11,65,0,2.461
109,self,12,50,0,1.796
109,self,13,70,0,3.237
109,self,14,95,1,2.011
109,self,15,85,1,2.738
109,self,16,60,0,7.677
109,self,17,75,0,2.382
109,self,18,95,1,1.801
109,self,19,55,0,2.452
109,self,20,70,0,2.084
110,self,1,75,0,12.134
110,self,2,50,0,5.22
110,self,3,70,0,5.604
110,self,4,80,0,5.317
110,self,5,90,0,5.076
110,self,6,65,0,4.566
110,self,7,70,0,6.763
110,self,8,80,0,5.021
110,self,9,85,0,5.095
110,self,10,95,0,5.613
110,self,11,95,0,3.787
110,self,12,50,0,5.282
110,self,13,55,0,3.807
110,self,14,60,0,4.113
110,self,15,60,0,3.88
110,self,16,90,0,4.089
110,self,17,65,0,4.543
110,self,18,55,0,4.924
110,self,19,75,0,3.644
110,self,20,85,0,4.393
111,self,1,95,1,5.279
111,self,2,85,0,5.932
111,self,3,95,0,2.912
111,self,4,50,0,6.821
111,self,5,80,0,2.172
111,self,6,70,0,2.635
111,self,7,65,0,1.706
111,self,8,85,0,1.631
111,self,9,50,0,2.083
111,self,10,55,0,2.558
111,self,11,60,0,2.142
111,self,12,90,0,2.149
111,self,13,60,0,1.881
111,self,14,70,0,1.721
111,self,15,75,0,2.57
111,self,16,75,0,1.757
111,self,17,65,0,1.894
111,self,18,90,0,2.364
111,self,19,80,0,1.483
111,self,20,55,0,2.418
112,self,1,60,0,2.753
112,self,2,85,1,3.364
112,self,3,55,0,2.832
112,self,4,75,0,3.05
112,self,5,90,1,1.933
112,self,6,60,0,2.646
112,self,7,70,0,2.931
112,self,8,80,0,3.425
112,self,9,65,0,1.867
112,self,10,80,0,2.592
112,self,11,65,0,1.973
112,self,12,90,1,1.914
112,self,13,95,1,2.382
112,self,14,95,1,1.595
112,self,15,55,0,2.273
112,self,16,70,0,2.045
112,self,17,50,0,2.262
112,self,18,50,0,1.818
112,self,19,75,0,1.847
112,self,20,85,1,2.461
113,self,1,75,0,5.677
113,self,2,65,0,10.492
113,self,3,95,1,5.944
113,self,4,55,0,5.663
113,self,5,70,0,4.039
113,self,6,80,0,5.223
113,self,7,60,0,4.53
113,self,8,50,0,5.344
113,self,9,95,1,5.201
113,self,10,50,0,6.319
113,self,11,60,0,7.012
113,self,12,70,0,3.608
113,self,13,55,0,6.424
113,self,14,90,0,3.262
113,self,15,75,0,3.716
113,self,16,65,0,3.279
113,self,17,85,0,4.717
113,self,18,90,0,5.437
113,self,19,80,0,4.65
113,self,20,85,1,2.974
114,self,1,55,0,7.614
114,self,2,50,0,28.851
114,self,3,75,1,51.593
114,self,4,90,1,4.679
114,self,5,55,0,9.981
114,self,6,50,0,3.972
114,self,7,80,1,7.812
114,self,8,75,1,5.637
114,self,9,85,1,4.375
114,self,10,95,1,6.379
114,self,11,65,1,3.612
114,self,12,90,1,3.216
114,self,13,95,1,3.805
114,self,14,85,1,5.857
114,self,15,60,0,8.762
114,self,16,65,1,3.963
114,self,17,70,1,4.836
114,self,18,70,1,3.831
114,self,19,60,0,3.138
114,self,20,80,1,5.137
115,self,1,60,0,5.821
115,self,2,70,0,6.74
115,self,3,70,0,5.315
115,self,4,55,0,5.586
115,self,5,80,0,4.767
115,self,6,85,0,5.074
115,self,7,95,1,4.31
115,self,8,85,0,3.997
115,self,9,90,0,5.624
115,self,10,60,0,4.392
115,self,11,65,0,4.478
115,self,12,65,0,4.722
115,self,13,80,0,4.276
115,self,14,55,0,5.364
115,self,15,75,0,5.705
115,self,16,95,1,4.79
115,self,17,90,0,5.336
115,self,18,50,0,4.469
115,self,19,50,0,5.591
115,self,20,75,0,4.731
116,self,1,80,1,9.275
116,self,2,80,1,7.043
116,self,3,55,0,10.521
116,self,4,70,0,7.776
116,self,5,70,0,24.543
116,self,6,75,1,18.619
116,self,7,95,1,6.834
116,self,8,60,0,6.464
116,self,9,90,1,65.941
116,self,10,90,1,19.279
116,self,11,85,1,11.322
116,self,12,95,1,7.735
116,self,13,65,1,6.135
116,self,14,65,0,4.944
116,self,15,55,0,6.424
116,self,16,85,1,6.72
116,self,17,75,1,14.471
116,self,18,60,0,5.736
116,self,19,50,0,4.982
116,self,20,50,0,5.128
117,self,1,85,1,17.637
117,self,2,90,1,4.338
117,self,3,70,0,3.641
117,self,4,50,0,2.881
117,self,5,90,0,27.157
117,self,6,95,1,3.064
117,self,7,65,0,1.621
117,self,8,95,1,2.63
117,self,9,70,0,2.226
117,self,10,80,0,2.027
117,self,11,65,0,2.168
117,self,12,80,0,2.227
117,self,13,60,0,2.146
117,self,14,60,0,3.074
117,self,15,85,0,6.528
117,self,16,75,0,2.523
117,self,17,55,0,1.941
117,self,18,75,0,45.255
117,self,19,55,0,2.06
117,self,20,50,0,1.402
118,self,1,90,0,6.53
118,self,2,50,0,2.583
118,self,3,95,1,5.273
118,self,4,75,0,4.914
118,self,5,75,0,2.523
118,self,6,90,1,3.51
118,self,7,60,0,2.922
118,self,8,70,0,1.596
118,self,9,55,0,1.89
118,self,10,50,0,2.388
118,self,11,85,1,3.781
118,self,12,55,0,1.731
118,self,13,95,1,2.278
118,self,14,80,0,2.144
118,self,15,85,0,2.346
118,self,16,65,0,1.994
118,self,17,80,0,3.181
118,self,18,70,0,2.063
118,self,19,60,0,2.879
118,self,20,65,0,1.734
119,self,1,90,1,4.99
119,self,2,70,0,4.058
119,self,3,90,1,5.03
119,self,4,95,1,4.08
119,self,5,80,1,4.395
119,self,6,70,0,3.351
119,self,7,60,0,3.692
119,self,8,55,0,3.323
119,self,9,85,1,3.104
119,self,10,60,0,2.92
119,self,11,85,1,2.718
119,self,12,50,0,2.416
119,self,13,65,0,3.371
119,self,14,75,0,3.036
119,self,15,50,0,2.427
119,self,16,95,1,2.546
119,self,17,75,0,3.076
119,self,18,65,0,2.431
119,self,19,80,1,3.655
119,self,20,55,0,3.124
120,self,1,60,0,5.594
120,self,2,80,0,5.077
120,self,3,90,0,4.404
120,self,4,80,0,5.57
120,self,5,75,0,4.302
120,self,6,70,0,4.072
120,self,7,55,0,3.688
120,self,8,60,0,3.843
120,self,9,85,0,4.055
120,self,10,55,0,3.929
120,self,11,50,0,3.701
120,self,12,65,0,3.622
120,self,13,95,0,3.742
120,self,14,90,0,3.374
120,self,15,70,0,8.453
120,self,16,65,0,6.116
120,self,17,95,0,4.223
120,self,18,85,0,3.388
120,self,19,75,0,3.467
120,self,20,50,0,4.907
121,self,1,75,0,3.698
121,self,2,70,0,4.039
121,self,3,60,0,4.248
121,self,4,75,0,2.694
121,self,5,55,0,4.29
121,self,6,85,1,2.164
121,self,7,80,1,2.441
121,self,8,85,1,2.955
121,self,9,65,0,2.645
121,self,10,60,0,3.007
121,self,11,50,0,2.375
121,self,12,95,1,2.372
121,self,13,70,0,2.11
121,self,14,80,1,2.766
121,self,15,90,1,2.242
121,self,16,65,0,6.093
121,self,17,95,1,1.95
121,self,18,55,0,2.412
121,self,19,90,1,4.084
121,self,20,50,0,2.476
122,self,1,90,0,4.11
122,self,2,85,0,4.492
122,self,3,95,1,9.583
122,self,4,70,0,3.034
122,self,5,90,1,3.71
122,self,6,55,0,4.341
122,self,7,60,0,3.618
122,self,8,70,0,4.151
122,self,9,65,0,2.906
122,self,10,75,0,4.296
122,self,11,65,0,4.237
122,self,12,60,0,3.119
122,self,13,85,1,4.708
122,self,14,50,0,3.569
122,self,15,75,0,3.431
122,self,16,55,0,2.986
122,self,17,50,0,5.646
122,self,18,80,1,3.682
122,self,19,80,1,4.561
122,self,20,95,1,3.84
123,self,1,85,1,6.183
123,self,2,50,0,4.021
123,self,3,75,0,16.362
123,self,4,95,1,3.914
123,self,5,65,0,5.654
123,self,6,75,1,5.035
123,self,7,50,0,3.514
123,self,8,80,1,4.484
123,self,9,95,1,4.79
123,self,10,90,1,3.332
123,self,11,70,0,4.752
123,self,12,70,0,3.213
123,self,13,90,1,2.547
123,self,14,80,1,5.364
123,self,15,55,0,4.274
123,self,16,65,1,3.583
123,self,17,60,0,3.739
123,self,18,55,0,4.084
123,self,19,60,0,4.963
123,self,20,85,1,3.93
124,self,1,95,0,2.568
124,self,2,75,0,3.448
124,self,3,80,0,5.212
124,self,4,90,0,8.539
124,self,5,55,0,4.021
124,self,6,95,0,23.629
124,self,7,60,0,7.242
124,self,8,70,0,3.309
124,self,9,85,0,3.421
124,self,10,70,0,3.56
124,self,11,65,0,3.339
124,self,12,90,0,2.871
124,self,13,85,0,3.119
124,self,14,80,0,3.308
124,self,15,50,0,5.404
124,self,16,50,0,3.557
124,self,17,75,0,3.099
124,self,18,65,0,2.908
124,self,19,55,0,2.185
124,self,20,60,0,2.796
125,self,1,95,1,8.473
125,self,2,70,0,5.556
125,self,3,80,1,8.715
125,self,4,80,1,10.199
125,self,5,65,0,6.31
125,self,6,70,0,7.425
125,self,7,75,0,7.476
125,self,8,60,0,5.458
125,self,9,90,1,6.069
125,self,10,85,1,5.376
125,self,11,60,0,6.674
125,self,12,55,0,4.749
125,self,13,95,1,5.001
125,self,14,65,0,5.863
125,self,15,55,0,5.801
125,self,16,85,1,6.6
125,self,17,50,0,5.024
125,self,18,75,1,17.292
125,self,19,90,1,3.634
125,self,20,50,0,3.915
126,self,1,85,0,6.568
126,self,2,70,0,7.266
126,self,3,80,0,6.374
126,self,4,95,1,6.371
126,self,5,90,1,13.615
126,self,6,55,0,5.918
126,self,7,50,0,7.525
126,self,8,50,0,5.431
126,self,9,65,0,6.822
126,self,10,90,1,7.018
126,self,11,60,0,5.94
126,self,12,70,0,7.439
126,self,13,60,0,6.028
126,self,14,75,0,6.122
126,self,15,65,0,8.146
126,self,16,85,0,6.029
126,self,17,75,0,13.45
126,self,18,55,0,6.782
126,self,19,95,1,5.304
126,self,20,80,0,5.708
127,self,1,50,0,3.986
127,self,2,90,1,48.033
127,self,3,65,1,5.046
127,self,4,50,0,2.894
127,self,5,85,1,4.395
127,self,6,80,1,3.071
127,self,7,60,0,2.433
127,self,8,65,1,5.237
127,self,9,85,1,2.567
127,self,10,90,1,1.856
127,self,11,70,1,3.344
127,self,12,55,0,2.829
127,self,13,95,1,1.977
127,self,14,95,1,2.59
127,self,15,75,1,3.599
127,self,16,75,1,1.966
127,self,17,70,1,1.987
127,self,18,55,0,2.058
127,self,19,60,0,1.825
127,self,20,80,1,5.304
128,self,1,50,0,4.816
128,self,2,85,1,5.153
128,self,3,85,1,2.484
128,self,4,75,0,2.689
128,self,5,75,0,4.212
128,self,6,65,0,2.597
128,self,7,90,1,2.967
128,self,8,90,1,2.565
128,self,9,95,1,2.358
128,self,10,60,0,2.272
128,self,11,65,0,2.127
128,self,12,80,0,1.969
128,self,13,70,0,2.362
128,self,14,50,0,2.788
128,self,15,80,0,2.423
128,self,16,70,0,2.543
128,self,17,55,0,3.447
128,self,18,60,0,2.916
128,self,19,95,1,2.539
128,self,20,55,0,2.288
129,self,1,85,0,3.094
129,self,2,75,0,2.147
129,self,3,75,0,1.717
129,self,4,65,0,2.061
129,self,5,80,0,2.154
129,self,6,55,0,2.087
129,self,7,95,1,3.419
129,self,8,55,0,2.939
129,self,9,90,0,1.908
129,self,10,90,0,1.854
129,self,11,95,1,2.025
129,self,12,70,0,2.076
129,self,13,85,0,1.775
129,self,14,70,0,4.171
129,self,15,60,0,1.978
129,self,16,50,0,1.804
129,self,17,80,0,3.165
129,self,18,65,0,11.017
129,self,19,60,0,6.709
129,self,20,50,0,1.602
130,self,1,85,0,4.3
130,self,2,50,0,4.439
130,self,3,95,1,7.679
130,self,4,50,0,3.972
130,self,5,75,0,2.924
130,self,6,80,0,3.171
130,self,7,85,0,4.099
130,self,8,60,0,3.649
130,self,9,70,0,2.768
130,self,10,55,0,3.601
130,self,11,90,1,4.708
130,self,12,75,0,2.649
130,self,13,60,0,2.9
130,self,14,95,1,2.823
130,self,15,80,0,3.477
130,self,16,55,0,3.984
130,self,17,65,0,2.313
130,self,18,65,0,2.536
130,self,19,90,1,3.237
130,self,20,70,0,3.272
131,self,1,65,0,7.427
131,self,2,90,1,4.147
131,self,3,55,0,2.819
131,self,4,65,0,3.239
131,self,5,75,0,3.344
131,self,6,95,1,3.281
131,self,7,50,0,3.019
131,self,8,55,0,2.499
131,self,9,60,0,1.944
131,self,10,85,1,4.319
131,self,11,70,0,3.786
131,self,12,80,1,4.655
131,self,13,50,0,3.254
131,self,14,70,0,3.296
131,self,15,60,0,2.189
131,self,16,95,1,3.373
131,self,17,80,1,3.26
131,self,18,85,1,4.418
131,self,19,75,0,4.13
131,self,20,90,1,4.209
132,self,1,85,0,15.066
132,self,2,60,0,5.989
132,self,3,75,0,4.881
132,self,4,50,0,6.178
132,self,5,55,0,4.861
132,self,6,65,0,4.783
132,self,7,75,0,2.625
132,self,8,80,1,5.763
132,self,9,70,0,13.372
132,self,10,90,1,4.529
132,self,11,55,0,3.669
132,self,12,85,1,5.81
132,self,13,95,1,4.028
132,self,14,95,1,5.253
132,self,15,60,0,3.203
132,self,16,70,0,4.667
132,self,17,65,0,3.592
132,self,18,50,0,5.186
132,self,19,80,1,5.091
132,self,20,90,1,5.154
133,self,1,75,0,2.952
133,self,2,90,1,2.7
133,self,3,80,0,6.934
133,self,4,55,0,3.308
133,self,5,70,0,2.912
133,self,6,95,1,5.017
133,self,7,95,1,2.145
133,self,8,60,0,3.031
133,self,9,85,1,3.021
133,self,10,55,0,4.044
133,self,11,70,0,8.067
133,self,12,80,1,2.011
133,self,13,90,1,2.608
133,self,14,85,1,1.909
133,self,15,50,0,2.213
133,self,16,65,0,2.92
133,self,17,75,0,2.691
133,self,18,65,0,2.145
133,self,19,50,0,2.072
133,self,20,60,0,3.864
134,self,1,65,0,5.551
134,self,2,50,0,3.933
134,self,3,95,0,8.731
134,self,4,70,0,4.783
134,self,5,50,0,3.958
134,self,6,75,0,4.078
134,self,7,75,0,3.304
134,self,8,60,0,3.365
134,self,9,65,0,3.671
134,self,10,80,0,3.13
134,self,11,95,0,5.075
134,self,12,55,0,8.042
134,self,13,90,0,3.661
134,self,14,85,0,3.026
134,self,15,85,0,4.108
134,self,16,90,0,3.1
134,self,17,70,0,3.509
134,self,18,60,0,4.24
134,self,19,55,0,2.719
134,self,20,80,0,3.532
135,self,1,60,0,6.354
135,self,2,50,0,4.024
135,self,3,95,1,6.451
135,self,4,55,0,6.314
135,self,5,60,0,3.682
135,self,6,85,1,3.925
135,self,7,80,0,3.243
135,self,8,65,0,3.448
135,self,9,90,0,3.911
135,self,10,90,1,3.26
135,self,11,70,0,2.7
135,self,12,50,0,3.729
135,self,13,80,0,3.25
135,self,14,65,0,3.016
135,self,15,75,0,3.596
135,self,16,75,0,3.175
135,self,17,55,0,3.28
135,self,18,70,0,2.109
135,self,19,85,0,2.334
135,self,20,95,1,2.816
136,self,1,70,1,5.308
136,self,2,95,1,3.983
136,self,3,75,1,4.215
136,self,4,90,1,2.213
136,self,5,85,1,5.188
136,self,6,80,1,1.924
136,self,7,65,0,3.129
136,self,8,50,0,2.756
136,self,9,85,1,3.113
136,self,10,60,0,3.689
136,self,11,70,0,2.329
136,self,12,55,0,2.303
136,self,13,90,1,2.945
136,self,14,60,0,2.435
136,self,15,50,0,2.933
136,self,16,55,0,2.954
136,self,17,95,1,2.569
136,self,18,75,1,3.962
136,self,19,80,1,3.851
136,self,20,65,0,3.15
137,self,1,50,0,4.445
137,self,2,80,0,2.052
137,self,3,75,0,2.05
137,self,4,65,0,2.306
137,self,5,55,0,3.43
137,self,6,70,0,2.249
137,self,7,60,0,2.396
137,self,8,85,0,2.342
137,self,9,75,0,3.222
137,self,10,65,0,2.561
137,self,11,60,0,2.069
137,self,12,90,0,2.368
137,self,13,95,0,2.341
137,self,14,70,0,2.801
137,self,15,95,0,2.774
137,self,16,90,0,2.542
137,self,17,85,0,1.734
137,self,18,55,0,2.489
137,self,19,80,0,1.79
137,self,20,50,0,2.294
138,self,1,50,0,3.379
138,self,2,60,0,1.336
138,self,3,90,0,2.35
138,self,4,65,0,1.92
138,self,5,80,0,2.158
138,self,6,85,0,1.738
138,self,7,70,0,1.565
138,self,8,60,0,2.507
138,self,9,95,1,1.766
138,self,10,55,0,1.43
138,self,11,65,0,1.823
138,self,12,85,0,1.593
138,self,13,80,0,1.813
138,self,14,50,0,1.809
138,self,15,75,0,1.212
138,self,16,55,0,1.177
138,self,17,90,1,2.252
138,self,18,75,0,1.948
138,self,19,70,0,1.468
138,self,20,95,1,2.169
139,self,1,80,0,3.365
139,self,2,75,0,3.633
139,self,3,95,0,4.19
139,self,4,50,0,3.59
139,self,5,90,0,2.699
139,self,6,60,0,2.313
139,self,7,95,0,3.057
139,self,8,70,0,1.599
139,self,9,55,0,2.316
139,self,10,85,0,1.866
139,self,11,50,0,2.592
139,self,12,80,0,2.157
139,self,13,65,0,2.284
139,self,14,65,0,2.186
139,self,15,60,0,2.518
139,self,16,85,0,1.925
139,self,17,70,0,2.245
139,self,18,55,0,2.418
139,self,19,90,0,2.704
139,self,20,75,0,2.124
140,self,1,85,1,4.854
140,self,2,70,0,2.378
140,self,3,95,1,2.254
140,self,4,85,1,2.258
140,self,5,50,0,2.137
140,self,6,90,1,2.424
140,self,7,80,0,1.944
140,self,8,65,0,2.326
140,self,9,65,0,1.781
140,self,10,55,0,1.967
140,self,11,60,0,4.748
140,self,12,80,1,2.143
140,self,13,75,0,2.662
140,self,14,75,0,1.638
140,self,15,50,0,3.207
140,self,16,60,0,1.949
140,self,17,90,1,2.325
140,self,18,95,1,2.466
140,self,19,55,0,1.712
140,self,20,70,0,10.148
141,self,1,75,0,4.601
141,self,2,50,0,3.407
141,self,3,75,0,5.699
141,self,4,90,0,3.035
141,self,5,65,0,25.723
141,self,6,95,0,8.111
141,self,7,70,0,8.941
141,self,8,85,0,4.584
141,self,9,80,0,8.556
141,self,10,60,0,12.089
141,self,11,90,0,3.386
141,self,12,60,0,2.991
141,self,13,95,0,3.815
141,self,14,55,0,3.176
141,self,15,70,0,2.998
141,self,16,85,0,5.664
141,self,17,80,0,3.145
141,self,18,65,0,3.984
141,self,19,55,0,6.215
141,self,20,50,0,4.938
142,self,1,70,0,4.554
142,self,2,90,1,9.966
142,self,3,60,0,2.136
142,self,4,80,1,4.028
142,self,5,95,1,2.812
142,self,6,90,1,2.184
142,self,7,60,0,2.228
142,self,8,50,0,2.308
142,self,9,75,1,7.777
142,self,10,50,0,2.416
142,self,11,65,0,2.803
142,self,12,65,0,2.188
142,self,13,70,0,2.835
142,self,14,85,1,2.063
142,self,15,95,1,2.949
142,self,16,80,1,2.219
142,self,17,85,1,1.627
142,self,18,55,0,1.928
142,self,19,55,0,1.966
142,self,20,75,1,2.112
143,self,1,90,0,2.606
143,self,2,65,0,1.911
143,self,3,60,0,2.281
143,self,4,70,0,2.178
143,self,5,55,0,1.776
143,self,6,65,0,1.637
143,self,7,90,0,4.562
143,self,8,80,0,1.936
143,self,9,80,0,1.62
143,self,10,50,0,1.772
143,self,11,55,0,1.394
143,self,12,95,0,3.005
143,self,13,75,0,2.253
143,self,14,70,0,4.929
143,self,15,75,0,1.832
143,self,16,50,0,2.053
143,self,17,85,0,2.208
143,self,18,95,0,2.281
143,self,19,60,0,1.866
143,self,20,85,0,2.275
144,self,1,60,0,3.933
144,self,2,50,0,3.441
144,self,3,50,0,2.378
144,self,4,75,0,2.741
144,self,5,80,0,5.8
144,self,6,65,0,2.735
144,self,7,55,0,2.948
144,self,8,60,0,24.68
144,self,9,90,1,3.061
144,self,10,85,0,3.281
144,self,11,55,0,2.251
144,self,12,65,0,2.32
144,self,13,95,1,2.166
144,self,14,80,0,4.595
144,self,15,75,0,3.606
144,self,16,95,1,4.78
144,self,17,85,0,3.798
144,self,18,70,0,2.038
144,self,19,70,0,2.415
144,self,20,90,1,4.727
145,self,1,85,1,8.6
145,self,2,50,0,2.832
145,self,3,60,0,2.366
145,self,4,90,1,5.105
145,self,5,70,1,5.756
145,self,6,95,0,2.68
145,self,7,75,1,1.913
145,self,8,50,0,2.032
145,self,9,95,1,2.168
145,self,10,85,1,2.808
145,self,11,80,1,3.233
145,self,12,80,1,4.506
145,self,13,60,0,2.639
145,self,14,70,1,3.444
145,self,15,65,1,2.417
145,self,16,90,1,1.349
145,self,17,55,0,2.674
145,self,18,75,1,2.525
145,self,19,55,0,2.931
145,self,20,65,1,2.335
146,self,1,90,0,8.974
146,self,2,85,1,6.447
146,self,3,95,1,2.186
146,self,4,75,0,2.4
146,self,5,90,1,3.011
146,self,6,60,0,4.58
146,self,7,95,1,6.248
146,self,8,70,0,2.82
146,self,9,50,0,3.175
146,self,10,55,0,2.204
146,self,11,75,0,2.897
146,self,12,80,0,1.97
146,self,13,60,0,1.929
146,self,14,85,1,1.802
146,self,15,70,0,9.058
146,self,16,65,0,2.899
146,self,17,55,0,4.738
146,self,18,80,0,5.94
146,self,19,50,0,11.449
146,self,20,65,0,3.504
147,self,1,55,0,5.678
147,self,2,50,0,3.351
147,self,3,55,0,3.599
147,self,4,95,1,7.149
147,self,5,50,0,3.678
147,self,6,85,1,5.182
147,self,7,70,0,5.554
147,self,8,95,1,3.661
147,self,9,75,1,4.056
147,self,10,90,1,4.016
147,self,11,70,0,4.576
147,self,12,60,0,3.972
147,self,13,90,1,5.116
147,self,14,65,0,5.321
147,self,15,60,0,5.506
147,self,16,80,1,5.58
147,self,17,85,1,4.958
147,self,18,80,1,3.535
147,self,19,75,0,2.62
147,self,20,65,0,4.499
148,self,1,70,1,3.662
148,self,2,70,1,2.541
148,self,3,85,1,4.554
148,self,4,90,1,2.896
148,self,5,55,0,2.652
148,self,6,65,0,3.06
148,self,7,80,1,3.163
148,self,8,80,1,2.46
148,self,9,85,1,3.098
148,self,10,65,0,2.482
148,self,11,75,0,2.387
148,self,12,75,0,2.274
148,self,13,95,1,2.573
148,self,14,50,0,2.897
148,self,15,95,1,2.583
148,self,16,60,0,2.313
148,self,17,90,1,3.549
148,self,18,60,0,2.565
148,self,19,50,0,3.632
148,self,20,55,0,3.132
149,self,1,80,0,4.492
149,self,2,85,0,3.181
149,self,3,60,0,3.503
149,self,4,55,0,3.233
149,self,5,85,0,3.172
149,self,6,80,0,3.878
149,self,7,50,0,3.426
149,self,8,65,0,3.698
149,self,9,95,0,4.981
149,self,10,65,0,3.447
149,self,11,55,0,2.865
149,self,12,70,0,4.312
149,self,13,70,0,3.275
149,self,14,90,0,2.948
149,self,15,60,0,3.369
149,self,16,75,0,2.9
149,self,17,90,0,2.421
149,self,18,50,0,3.933
149,self,19,95,0,3.39
149,self,20,75,0,3.005
150,self,1,55,0,4.076
150,self,2,80,1,3.238
150,self,3,90,1,2.183
150,self,4,75,0,2.813
150,self,5,90,1,2.378
150,self,6,85,1,1.923
150,self,7,65,0,2.814
150,self,8,55,0,2.537
150,self,9,80,1,3.652
150,self,10,95,1,2.794
150,self,11,70,0,1.725
150,self,12,70,0,2.514
150,self,13,95,1,1.808
150,self,14,60,0,1.896
150,self,15,65,0,3.439
150,self,16,85,1,2.473
150,self,17,50,0,1.83
150,self,18,75,0,3.204
150,self,19,60,0,2.659
150,self,20,50,0,2.576
151,self,1,90,0,2.531
151,self,2,85,0,2.885
151,self,3,60,0,2.044
151,self,4,90,0,2.928
151,self,5,55,0,2.045
151,self,6,95,0,2.435
151,self,7,80,0,2.13
151,self,8,50,0,2.247
151,self,9,65,0,1.895
151,self,10,50,0,1.897
151,self,11,60,0,1.722
151,self,12,70,0,1.88
151,self,13,70,0,2.032
151,self,14,85,0,3.263
151,self,15,75,0,1.72
151,self,16,75,0,2.312
151,self,17,95,0,2.679
151,self,18,55,0,1.618
151,self,19,80,0,2.023
151,self,20,65,0,2.954
152,self,1,85,1,4.159
152,self,2,60,0,2.145
152,self,3,90,1,3.67
152,self,4,70,1,2.415
152,self,5,50,0,2.457
152,self,6,55,0,2.937
152,self,7,75,1,2.427
152,self,8,70,1,1.363
152,self,9,50,0,2.484
152,self,10,65,1,2.569
152,self,11,85,1,1.879
152,self,12,55,0,2.093
152,self,13,80,1,1.92
152,self,14,60,0,2.714
152,self,15,65,1,3.786
152,self,16,75,1,1.818
152,self,17,90,1,3.311
152,self,18,80,1,15.71
152,self,19,95,1,48.738
152,self,20,95,1,2.467
153,self,1,75,0,8.119
153,self,2,65,0,3.696
153,self,3,55,0,3.598
153,self,4,95,1,4.301
153,self,5,70,0,3.02
153,self,6,50,0,2.741
153,self,7,80,0,3.567
153,self,8,50,0,3.067
153,self,9,70,0,3.578
153,self,10,85,1,3.319
153,self,11,60,0,2.595
153,self,12,90,1,2.708
153,self,13,75,0,2.461
153,self,14,95,1,2.914
153,self,15,85,1,2.42
153,self,16,65,0,2.055
153,self,17,80,0,2.195
153,self,18,60,0,2.479
153,self,19,55,0,2.667
153,self,20,90,1,2.653
154,self,1,90,1,3.049
154,self,2,95,1,1.686
154,self,3,90,0,2.12
154,self,4,70,0,2.056
154,self,5,50,0,1.542
154,self,6,70,0,2.314
154,self,7,65,0,2.106
154,self,8,95,1,1.716
154,self,9,80,0,1.538
154,self,10,60,0,2.078
154,self,11,55,0,2.117
154,self,12,65,0,1.685
154,self,13,75,0,2.132
154,self,14,85,1,1.791
154,self,15,50,0,1.928
154,self,16,55,0,1.617
154,self,17,75,0,2.454
154,self,18,85,1,1.773
154,self,19,80,0,7.951
154,self,20,60,0,1.687
155,self,1,85,0,5.978
155,self,2,50,0,2.74
155,self,3,90,1,3.01
155,self,4,55,0,2.66
155,self,5,70,0,2.31
155,self,6,60,0,2.557
155,self,7,65,0,2.307
155,self,8,95,0,2.318
155,self,9,80,0,3.112
155,self,10,85,0,2.366
155,self,11,65,0,28.932
155,self,12,50,0,2.405
155,self,13,80,0,2.741
155,self,14,95,0,12.984
155,self,15,70,0,2.176
155,self,16,60,0,2.147
155,self,17,90,0,4.154
155,self,18,75,0,12.057
155,self,19,55,0,3.325
155,self,20,75,0,4.299
157,self,1,70,0,7.412
157,self,2,85,0,7.654
157,self,3,95,0,3.731
157,self,4,60,0,2.398
157,self,5,75,0,2.553
157,self,6,90,0,2.566
157,self,7,90,0,2.892
157,self,8,85,0,3.186
157,self,9,95,0,3.513
157,self,10,75,0,2.638
157,self,11,80,0,2.625
157,self,12,55,0,2.855
157,self,13,65,0,2.978
157,self,14,55,0,2.871
157,self,15,65,0,3.021
157,self,16,50,0,2.552
157,self,17,50,0,2.47
157,self,18,60,0,3.011
157,self,19,70,0,2.752
157,self,20,80,0,3.476
158,self,1,80,1,7.269
158,self,2,85,1,1.27
158,self,3,60,1,65.063
158,self,4,60,1,2.723
158,self,5,55,0,1.884
158,self,6,85,1,1.973
158,self,7,50,0,1.614
158,self,8,70,1,1.684
158,self,9,90,1,1.66
158,self,10,95,1,1.542
158,self,11,70,1,2.043
158,self,12,80,1,2.164
158,self,13,50,0,1.656
158,self,14,75,1,1.649
158,self,15,65,1,1.741
158,self,16,95,1,2.103
158,self,17,55,0,1.496
158,self,18,65,1,2.021
158,self,19,90,1,3.376
158,self,20,75,1,1.519
159,self,1,50,0,5.933
159,self,2,90,1,4.86
159,self,3,85,0,5.609
159,self,4,90,1,4.651
159,self,5,65,0,3.559
159,self,6,70,0,2.606
159,self,7,50,0,3.361
159,self,8,70,0,2.685
159,self,9,75,0,2.946
159,self,10,60,0,2.527
159,self,11,75,0,3.944
159,self,12,80,0,3.548
159,self,13,60,0,2.862
159,self,14,55,0,2.833
159,self,15,85,0,6.043
159,self,16,65,0,2.593
159,self,17,80,0,4.823
159,self,18,95,1,4.514
159,self,19,55,0,2.773
159,self,20,95,1,3.392
160,self,1,90,0,8.489
160,self,2,85,0,3.809
160,self,3,70,0,10.517
160,self,4,65,0,3.128
160,self,5,60,0,3.637
160,self,6,95,0,8.711
160,self,7,55,0,3.38
160,self,8,60,0,5.038
160,self,9,95,0,3.154
160,self,10,80,0,27.664
160,self,11,65,0,2.88
160,self,12,50,0,2.898
160,self,13,55,0,3.115
160,self,14,75,0,2.974
160,self,15,50,0,2.952
160,self,16,90,0,2.66
160,self,17,85,0,3.093
160,self,18,80,0,4.099
160,self,19,70,0,3.06
160,self,20,75,0,2.893
161,self,1,65,0,13.073
161,self,2,70,0,11.795
161,self,3,60,0,3.933
161,self,4,60,0,5.116
161,self,5,65,0,5.374
161,self,6,90,1,5.01
161,self,7,85,1,4.001
161,self,8,50,0,5.275
161,self,9,55,0,6.115
161,self,10,75,1,3.782
161,self,11,95,1,5.984
161,self,12,95,1,4.343
161,self,13,80,1,3.959
161,self,14,80,1,4.801
161,self,15,75,1,4.527
161,self,16,55,0,6.399
161,self,17,90,1,2.687
161,self,18,50,0,2.707
161,self,19,70,1,4.774
161,self,20,85,1,3.329
162,self,1,55,0,3.742
162,self,2,65,0,3.849
162,self,3,80,0,8.249
162,self,4,95,0,3.562
162,self,5,85,0,2.007
162,self,6,60,0,3.081
162,self,7,50,0,1.841
162,self,8,75,0,2.246
162,self,9,90,0,2.568
162,self,10,70,0,2.316
162,self,11,85,0,1.996
162,self,12,90,0,2.155
162,self,13,55,0,1.975
162,self,14,70,0,3.459
162,self,15,80,0,1.801
162,self,16,60,0,1.604
162,self,17,65,0,1.648
162,self,18,50,0,1.178
162,self,19,75,0,3.032
162,self,20,95,0,2.449
163,self,1,60,1,23.886
163,self,2,50,0,4.187
163,self,3,55,0,5.562
163,self,4,80,1,3.932
163,self,5,70,1,5.217
163,self,6,75,1,5.396
163,self,7,80,1,5.986
163,self,8,90,1,3.898
163,self,9,55,0,3.437
163,self,10,85,1,4.096
163,self,11,50,0,2.881
163,self,12,95,1,3.892
163,self,13,70,0,5.874
163,self,14,90,1,4.326
163,self,15,95,1,3.352
163,self,16,65,0,4.075
163,self,17,85,1,3.142
163,self,18,75,1,6.185
163,self,19,65,0,3.455
163,self,20,60,0,3.437
164,self,1,70,0,5.005
164,self,2,55,0,3.724
164,self,3,60,0,2.484
164,self,4,80,0,3.331
164,self,5,95,0,2.474
164,self,6,55,0,1.523
164,self,7,90,0,4.45
164,self,8,70,0,2.01
164,self,9,80,0,3.08
164,self,10,50,0,2.053
164,self,11,95,0,2.431
164,self,12,85,0,1.895
164,self,13,65,0,1.579
164,self,14,90,0,1.967
164,self,15,65,0,2.895
164,self,16,60,0,1.63
164,self,17,75,0,4.341
164,self,18,85,0,2.306
164,self,19,75,0,1.768
164,self,20,50,0,3.593
165,self,1,50,0,3.669
165,self,2,55,0,6.984
165,self,3,90,0,13.662
165,self,4,65,0,2.225
165,self,5,85,0,2.704
165,self,6,75,0,2.499
165,self,7,80,0,2.301
165,self,8,90,0,7.488
165,self,9,70,0,2.784
165,self,10,50,0,2.468
165,self,11,80,0,2.873
165,self,12,70,0,2.409
165,self,13,60,0,2.28
165,self,14,85,0,3.305
165,self,15,60,0,2.94
165,self,16,55,0,2.519
165,self,17,75,0,2.608
165,self,18,95,0,3.155
165,self,19,65,0,2.425
165,self,20,95,0,2.336
166,self,1,65,0,2.511
166,self,2,50,0,1.95
166,self,3,90,1,3.539
166,self,4,85,0,2.235
166,self,5,70,0,2.155
166,self,6,60,0,1.455
166,self,7,75,0,1.323
166,self,8,60,0,1.614
166,self,9,95,1,2.113
166,self,10,90,0,7.349
166,self,11,80,0,2.141
166,self,12,80,0,2.391
166,self,13,85,1,2.446
166,self,14,55,0,1.34
166,self,15,75,0,1.688
166,self,16,70,0,1.634
166,self,17,55,0,1.015
166,self,18,95,0,2.041
166,self,19,65,0,1.34
166,self,20,50,0,1.343
167,self,1,95,0,9.767
167,self,2,70,0,2.989
167,self,3,50,0,2.615
167,self,4,55,0,2.117
167,self,5,85,0,2.935
167,self,6,90,0,2.31
167,self,7,60,0,2.518
167,self,8,75,0,2.644
167,self,9,55,0,2.866
167,self,10,80,0,1.815
167,self,11,95,0,1.842
167,self,12,60,0,2.029
167,self,13,50,0,25.299
167,self,14,80,0,1.84
167,self,15,90,0,2.841
167,self,16,75,0,2.389
167,self,17,85,0,2.452
167,self,18,65,0,2.532
167,self,19,70,0,2.288
167,self,20,65,0,2.423
168,self,1,80,0,13.513
168,self,2,60,0,6.374
168,self,3,50,0,3.33
168,self,4,75,0,14.525
168,self,5,55,0,4.216
168,self,6,90,1,7.079
168,self,7,50,0,3.7
168,self,8,70,0,6.026
168,self,9,65,0,4.023
168,self,10,85,0,10.82
168,self,11,85,0,4.846
168,self,12,80,0,3.176
168,self,13,75,0,4.546
168,self,14,55,0,3.106
168,self,15,90,1,3.813
168,self,16,70,0,3.871
168,self,17,95,1,3.803
168,self,18,65,0,4.165
168,self,19,60,0,3.593
168,self,20,95,1,4.014
169,self,1,55,0,7.728
169,self,2,50,0,3.566
169,self,3,95,1,5.208
169,self,4,60,0,2.284
169,self,5,80,1,2.976
169,self,6,95,1,3.033
169,self,7,85,1,9.769
169,self,8,70,1,1.996
169,self,9,60,0,2.011
169,self,10,75,1,2.465
169,self,11,90,1,2.584
169,self,12,75,1,1.614
169,self,13,90,1,2.33
169,self,14,80,1,1.565
169,self,15,50,0,2.221
169,self,16,65,0,5.711
169,self,17,70,0,2.31
169,self,18,55,0,3.578
169,self,19,65,0,1.618
169,self,20,85,1,2.145
170,self,1,90,1,3.16
170,self,2,65,1,3.693
170,self,3,80,1,3.441
170,self,4,50,0,3.453
170,self,5,60,1,4.47
170,self,6,75,1,3.191
170,self,7,90,1,6.35
170,self,8,50,0,5.141
170,self,9,55,1,4.915
170,self,10,60,1,4.46
170,self,11,75,1,4.166
170,self,12,70,1,3.51
170,self,13,95,1,3.075
170,self,14,80,1,13.803
170,self,15,70,1,4.851
170,self,16,65,1,3.729
170,self,17,55,1,4.393
170,self,18,85,1,2.186
170,self,19,85,1,3.187
170,self,20,95,1,4.342
171,self,1,90,1,3.172
171,self,2,70,1,2.99
171,self,3,65,0,2.739
171,self,4,85,1,2.243
171,self,5,80,0,1.956
171,self,6,65,0,2.334
171,self,7,80,0,1.731
171,self,8,50,0,1.851
171,self,9,90,1,2.051
171,self,10,70,0,3.055
171,self,11,55,0,1.96
171,self,12,95,1,2.551
171,self,13,60,0,2.296
171,self,14,85,1,1.686
171,self,15,75,0,2.383
171,self,16,55,0,1.828
171,self,17,75,0,1.894
171,self,18,50,0,2.909
171,self,19,95,1,2.293
171,self,20,60,0,2.399
172,self,1,90,0,5.256
172,self,2,50,0,3.071
172,self,3,85,0,2.309
172,self,4,55,0,2.312
172,self,5,60,0,2.407
172,self,6,80,0,2.149
172,self,7,95,0,2.243
172,self,8,70,0,2.14
172,self,9,55,0,1.919
172,self,10,50,0,2.232
172,self,11,85,0,2.229
172,self,12,90,0,1.969
172,self,13,75,0,2.048
172,self,14,65,0,2.014
172,self,15,95,0,2.954
172,self,16,65,0,2.003
172,self,17,75,0,2.079
172,self,18,60,0,2.823
172,self,19,70,0,2.103
172,self,20,80,0,1.946
173,self,1,65,0,5.492
173,self,2,80,1,3.166
173,self,3,50,0,1.931
173,self,4,60,0,1.639
173,self,5,80,1,1.9
173,self,6,95,1,1.62
173,self,7,85,1,1.795
173,self,8,90,1,1.851
173,self,9,75,1,1.549
173,self,10,85,1,1.465
173,self,11,50,0,1.515
173,self,12,65,0,1.602
173,self,13,95,1,1.457
173,self,14,55,0,2.128
173,self,15,60,0,1.725
173,self,16,90,1,2.306
173,self,17,70,0,1.798
173,self,18,75,1,4.131
173,self,19,55,0,1.553
173,self,20,70,0,1.536
174,self,1,65,0,2.52
174,self,2,90,0,2.538
174,self,3,85,0,2.143
174,self,4,75,0,2.326
174,self,5,95,1,2.384
174,self,6,75,0,2.367
174,self,7,80,0,2.033
174,self,8,60,0,1.863
174,self,9,70,0,1.786
174,self,10,55,0,2.096
174,self,11,50,0,2.121
174,self,12,65,0,1.774
174,self,13,55,0,1.965
174,self,14,60,0,2.053
174,self,15,90,0,1.995
174,self,16,85,0,1.532
174,self,17,95,1,3.322
174,self,18,70,0,1.699
174,self,19,50,0,2.243
174,self,20,80,0,1.926
176,self,1,90,0,5.59
176,self,2,70,0,2.8
176,self,3,85,0,3.975
176,self,4,85,0,2.806
176,self,5,55,0,2.422
176,self,6,50,0,2.355
176,self,7,50,0,2.279
176,self,8,75,0,3.791
176,self,9,70,0,2.379
176,self,10,75,0,2.21
176,self,11,55,0,1.794
176,self,12,65,0,1.88
176,self,13,90,0,2.151
176,self,14,60,0,1.643
176,self,15,95,1,3.854
176,self,16,80,1,2.067
176,self,17,65,0,1.649
176,self,18,60,0,1.538
176,self,19,80,1,1.671
176,self,20,95,1,2.598
177,self,1,70,0,3.764
177,self,2,65,0,3.216
177,self,3,90,0,2.239
177,self,4,95,0,2.224
177,self,5,80,0,3.902
177,self,6,80,0,3.047
177,self,7,50,0,1.709
177,self,8,95,0,2.176
177,self,9,65,0,2.449
177,self,10,55,0,1.992
177,self,11,85,0,2.316
177,self,12,85,0,1.733
177,self,13,60,0,1.723
177,self,14,75,0,1.729
177,self,15,50,0,10.821
177,self,16,60,0,1.676
177,self,17,55,0,2.065
177,self,18,75,0,3.424
177,self,19,70,0,1.309
177,self,20,90,0,2.021
178,self,1,50,0,2.612
178,self,2,75,0,1.765
178,self,3,65,0,1.868
178,self,4,60,0,1.82
178,self,5,85,0,5.077
178,self,6,70,0,1.648
178,self,7,90,0,2.038
178,self,8,55,0,2.097
178,self,9,60,0,1.823
178,self,10,75,0,1.524
178,self,11,95,1,1.675
178,self,12,95,1,2.307
178,self,13,70,0,1.556
178,self,14,80,0,3.018
178,self,15,65,0,1.487
178,self,16,55,0,1.385
178,self,17,90,0,1.597
178,self,18,50,0,1.457
178,self,19,85,0,1.812
178,self,20,80,0,1.086
179,self,1,65,0,3.781
179,self,2,90,1,2.402
179,self,3,95,1,1.523
179,self,4,70,0,3.1
179,self,5,85,1,2.202
179,self,6,50,0,1.858
179,self,7,75,1,2.389
179,self,8,50,0,1.593
179,self,9,65,0,1.547
179,self,10,60,0,2.153
179,self,11,85,1,1.309
179,self,12,80,1,1.53
179,self,13,70,0,1.403
179,self,14,55,0,2.192
179,self,15,95,1,10.559
179,self,16,75,1,2.891
179,self,17,80,1,1.825
179,self,18,60,0,1.811
179,self,19,55,0,3.582
179,self,20,90,1,1.166
180,self,1,85,0,4.515
180,self,2,65,0,5.266
180,self,3,75,0,3.823
180,self,4,50,0,6.238
180,self,5,70,0,3.518
180,self,6,60,0,4.482
180,self,7,70,0,4.361
180,self,8,90,0,4.268
180,self,9,55,0,4.327
180,self,10,80,0,3.564
180,self,11,80,0,3.668
180,self,12,50,0,4.55
180,self,13,85,0,3.292
180,self,14,60,0,4.017
180,self,15,95,0,4.77
180,self,16,90,0,3.993
180,self,17,95,0,3.222
180,self,18,75,0,3.792
180,self,19,55,0,3.832
180,self,20,65,0,3.918
181,self,1,90,1,3.839
181,self,2,55,0,2.452
181,self,3,65,0,1.959
181,self,4,90,1,1.552
181,self,5,50,0,6.542
181,self,6,75,0,2.819
181,self,7,85,1,1.868
181,self,8,85,1,2.1
181,self,9,70,0,2.99
181,self,10,60,0,2.138
181,self,11,70,0,3.04
181,self,12,95,1,3.105
181,self,13,80,1,1.959
181,self,14,80,1,3.608
181,self,15,95,1,4.619
181,self,16,50,0,14.185
181,self,17,75,0,4.281
181,self,18,55,0,1.984
181,self,19,60,0,2.692
181,self,20,65,0,2.151
182,self,1,85,0,3.922
182,self,2,65,0,3.353
182,self,3,60,0,1.987
182,self,4,60,0,2.277
182,self,5,85,0,2.133
182,self,6,55,0,2.785
182,self,7,75,0,2.035
182,self,8,65,0,3.026
182,self,9,80,0,2.546
182,self,10,95,1,3.893
182,self,11,50,0,2.436
182,self,12,50,0,2.488
182,self,13,55,0,2.657
182,self,14,70,0,2.316
182,self,15,70,0,2.148
182,self,16,95,1,3.08
182,self,17,80,0,2.964
182,self,18,90,1,2.937
182,self,19,75,1,2.109
182,self,20,90,0,2.681
183,self,1,90,1,4.768
183,self,2,55,0,4.511
183,self,3,65,1,7.866
183,self,4,85,1,4.291
183,self,5,85,1,3.291
183,self,6,75,1,3.867
183,self,7,65,0,3.846
183,self,8,95,1,6.154
183,self,9,60,0,4.01
183,self,10,55,0,4.088
183,self,11,80,1,4.833
183,self,12,90,1,7.001
183,self,13,70,1,4.436
183,self,14,50,0,2.615
183,self,15,95,1,3.633
183,self,16,75,1,3.191
183,self,17,50,0,2.274
183,self,18,70,0,5.257
183,self,19,60,0,5.109
183,self,20,80,1,5.46
184,self,1,50,0,4.843
184,self,2,60,0,3.651
184,self,3,70,1,5.948
184,self,4,85,1,2.41
184,self,5,60,0,2.241
184,self,6,95,1,2.762
184,self,7,55,0,2.576
184,self,8,75,1,1.903
184,self,9,75,1,2.568
184,self,10,65,0,2.654
184,self,11,50,0,2.451
184,self,12,90,1,2.235
184,self,13,85,1,4.969
184,self,14,95,1,1.658
184,self,15,55,0,2.178
184,self,16,80,1,1.894
184,self,17,80,1,2.731
184,self,18,90,1,2.652
184,self,19,70,1,2.162
184,self,20,65,0,2.01
185,self,1,95,1,3.143
185,self,2,85,0,2.247
185,self,3,75,0,2.599
185,self,4,90,1,5.437
185,self,5,70,0,1.891
185,self,6,90,1,1.983
185,self,7,95,1,1.91
185,self,8,60,0,2.225
185,self,9,70,0,2.764
185,self,10,85,0,2.268
185,self,11,60,0,1.816
185,self,12,80,0,2.689
185,self,13,50,0,2.08
185,self,14,80,0,1.778
185,self,15,65,0,1.439
185,self,16,50,0,1.793
185,self,17,75,0,1.826
185,self,18,65,0,2.317
185,self,19,55,0,1.832
185,self,20,55,0,2.073
186,self,1,95,1,6.163
186,self,2,60,0,3.064
186,self,3,75,0,4.768
186,self,4,70,0,3.392
186,self,5,80,1,3.032
186,self,6,70,0,3.493
186,self,7,65,0,3.454
186,self,8,95,1,3.344
186,self,9,90,1,3.301
186,self,10,85,1,3.223
186,self,11,85,1,3.248
186,self,12,90,1,2.68
186,self,13,65,0,2.417
186,self,14,50,0,2.951
186,self,15,80,1,3.116
186,self,16,55,0,3.356
186,self,17,60,0,2.385
186,self,18,55,0,3.907
186,self,19,50,0,3.048
186,self,20,75,0,2.326
187,self,1,95,1,4.625
187,self,2,75,1,5.33
187,self,3,55,0,3.333
187,self,4,50,0,2.731
187,self,5,75,1,3.467
187,self,6,90,1,2.099
187,self,7,60,0,2.636
187,self,8,80,1,2.5
187,self,9,65,0,2.919
187,self,10,60,0,2.546
187,self,11,80,1,3.161
187,self,12,50,0,2.503
187,self,13,95,1,3.44
187,self,14,85,1,2.844
187,self,15,70,0,3.161
187,self,16,85,1,2.126
187,self,17,65,0,2.48
187,self,18,70,0,2.202
187,self,19,55,0,2.976
187,self,20,90,1,3.525
188,self,1,90,1,8.941
188,self,2,85,1,3.662
188,self,3,50,0,3.935
188,self,4,95,1,5.382
188,self,5,55,0,4.162
188,self,6,85,1,3.769
188,self,7,70,1,5.163
188,self,8,55,0,3.42
188,self,9,90,1,3.784
188,self,10,50,0,2.964
188,self,11,95,1,3.598
188,self,12,80,1,3.389
188,self,13,60,0,2.42
188,self,14,65,0,2.575
188,self,15,70,0,5.456
188,self,16,80,1,3.203
188,self,17,65,0,13.255
188,self,18,75,1,3.557
188,self,19,75,1,2.698
188,self,20,60,0,3.257
189,self,1,50,0,21.227
189,self,2,90,1,8.891
189,self,3,65,0,4.008
189,self,4,90,1,4.862
189,self,5,65,0,4.346
189,self,6,80,1,5.219
189,self,7,80,1,5.682
189,self,8,75,1,4.475
189,self,9,70,1,4.985
189,self,10,95,1,6.194
189,self,11,75,1,4.34
189,self,12,50,0,4.053
189,self,13,55,0,5.112
189,self,14,95,1,4.959
189,self,15,60,1,4.269
189,self,16,60,1,7.458
189,self,17,55,0,7.171
189,self,18,70,1,8.076
189,self,19,85,1,9.13
189,self,20,85,1,6.004
190,self,1,75,1,3.867
190,self,2,65,0,3.967
190,self,3,95,0,2.943
190,self,4,60,0,4.972
190,self,5,70,0,4.157
190,self,6,75,0,4.7
190,self,7,90,1,3.255
190,self,8,65,0,3.719
190,self,9,80,1,3.174
190,self,10,85,1,3.46
190,self,11,85,1,3.014
190,self,12,50,0,4.298
190,self,13,90,1,4.835
190,self,14,80,1,4.352
190,self,15,55,0,2.784
190,self,16,95,1,2.82
190,self,17,55,0,3.446
190,self,18,50,0,4.457
190,self,19,60,0,3.058
190,self,20,70,0,3.332
191,self,1,55,0,7.922
191,self,2,50,0,9.33
191,self,3,95,1,4.905
191,self,4,80,1,2.82
191,self,5,75,1,2.55
191,self,6,85,1,97.975
191,self,7,65,0,415.083
191,self,8,70,1,2.201
191,self,9,85,1,2.905
191,self,10,65,0,12.041
191,self,11,60,0,2.579
191,self,12,75,1,1.632
191,self,13,70,1,3.047
191,self,14,50,0,2.452
191,self,15,90,1,4.761
191,self,16,90,1,2.198
191,self,17,95,1,1.697
191,self,18,60,0,2.013
191,self,19,55,0,2.109
191,self,20,80,1,3.173
192,self,1,85,1,8.899
192,self,2,55,0,6.002
192,self,3,60,0,3.962
192,self,4,80,1,3.291
192,self,5,65,1,3.601
192,self,6,95,1,4.738
192,self,7,75,1,6.98
192,self,8,55,0,5.792
192,self,9,90,1,3.14
192,self,10,70,1,4.444
192,self,11,85,1,2.962
192,self,12,50,0,3.909
192,self,13,90,1,4.722
192,self,14,75,1,2.753
192,self,15,95,1,4.68
192,self,16,65,1,5.967
192,self,17,50,0,2.562
192,self,18,60,0,3.284
192,self,19,80,1,4.448
192,self,20,70,1,3.078
193,self,1,50,0,6.741
193,self,2,80,0,5.22
193,self,3,75,0,5.278
193,self,4,70,0,5.275
193,self,5,55,0,5.97
193,self,6,70,0,4.193
193,self,7,95,0,4.623
193,self,8,60,0,5.282
193,self,9,60,0,5.221
193,self,10,75,0,3.942
193,self,11,65,0,4.721
193,self,12,95,0,4.405
193,self,13,85,0,4.764
193,self,14,90,0,4.808
193,self,15,65,0,4.743
193,self,16,50,0,5.09
193,self,17,85,0,4.708
193,self,18,55,0,5.306
193,self,19,80,0,4.114
193,self,20,90,0,4.577
194,self,1,60,0,7.653
194,self,2,80,1,4.6
194,self,3,65,0,5.282
194,self,4,50,0,4.795
194,self,5,55,0,14.511
194,self,6,90,1,7.327
194,self,7,50,0,4.735
194,self,8,70,0,4.798
194,self,9,65,0,8.282
194,self,10,90,1,7.367
194,self,11,55,0,5.477
194,self,12,70,0,4.62
194,self,13,75,0,4.526
194,self,14,60,0,4.764
194,self,15,80,1,5.32
194,self,16,95,1,4.332
194,self,17,95,1,8.65
194,self,18,75,0,5.129
194,self,19,85,1,5.301
194,self,20,85,1,4.66
195,self,1,90,0,4.913
195,self,2,90,0,2.74
195,self,3,70,0,4.832
195,self,4,55,0,2.532
195,self,5,55,0,3.437
195,self,6,60,0,2.941
195,self,7,85,0,3.437
195,self,8,95,1,3.871
195,self,9,50,0,2.287
195,self,10,80,0,6.779
195,self,11,65,0,2.442
195,self,12,95,1,2.818
195,self,13,85,0,4.843
195,self,14,70,0,2.88
195,self,15,50,0,2.967
195,self,16,80,0,2.456
195,self,17,75,0,2.173
195,self,18,75,0,2.432
195,self,19,65,0,2.761
195,self,20,60,0,2.357
196,self,1,50,0,5.791
196,self,2,95,1,4.772
196,self,3,90,0,2.883
196,self,4,75,0,3.273
196,self,5,55,0,2.99
196,self,6,85,0,2.774
196,self,7,60,0,2.157
196,self,8,80,0,2.346
196,self,9,70,0,3.014
196,self,10,90,0,1.956
196,self,11,70,0,2.453
196,self,12,55,0,8.69
196,self,13,85,0,7.868
196,self,14,65,0,2.762
196,self,15,50,0,2.844
196,self,16,80,0,5.201
196,self,17,60,0,2.724
196,self,18,95,1,2.576
196,self,19,65,0,2.945
196,self,20,75,0,2.055
197,self,1,70,0,3.746
197,self,2,85,0,6.075
197,self,3,95,0,3.981
197,self,4,95,0,5.124
197,self,5,75,0,4.918
197,self,6,60,0,5.356
197,self,7,80,0,3.59
197,self,8,50,0,4.767
197,self,9,80,0,8.797
197,self,10,60,0,2.912
197,self,11,90,0,3.802
197,self,12,90,0,4.376
197,self,13,70,0,2.985
197,self,14,55,0,3.39
197,self,15,50,0,3.412
197,self,16,65,0,2.786
197,self,17,85,0,6.916
197,self,18,55,0,2.322
197,self,19,65,0,5.153
197,self,20,75,0,8.399
198,self,1,55,0,1.827
198,self,2,75,0,1.869
198,self,3,55,0,2.257
198,self,4,70,0,1.391
198,self,5,90,0,2.801
198,self,6,90,0,1.79
198,self,7,95,0,1.31
198,self,8,50,0,1.287
198,self,9,65,0,1.346
198,self,10,80,0,1.629
198,self,11,85,0,1.656
198,self,12,70,0,1.587
198,self,13,80,0,1.087
198,self,14,60,0,1.19
198,self,15,50,0,1.65
198,self,16,65,0,1.423
198,self,17,60,0,1.479
198,self,18,95,0,1.206
198,self,19,75,0,1.544
198,self,20,85,0,1.524
199,self,1,55,0,9.225
199,self,2,95,1,7.35
199,self,3,85,1,9.802
199,self,4,70,0,7.671
199,self,5,90,1,8.909
199,self,6,75,0,11.182
199,self,7,75,1,4.32
199,self,8,60,0,39.454
199,self,9,70,0,11.113
199,self,10,85,1,15.154
199,self,11,80,0,5.966
199,self,12,55,0,11.717
199,self,13,60,0,5.916
199,self,14,80,1,6.687
199,self,15,95,1,7.259
199,self,16,65,0,8.135
199,self,17,65,0,7.069
199,self,18,50,0,5.925
199,self,19,90,1,6.606
199,self,20,50,0,4.658
200,self,1,55,0,3.358
200,self,2,55,0,3.606
200,self,3,60,0,2.643
200,self,4,85,0,2.212
200,self,5,70,0,2.393
200,self,6,65,0,2.843
200,self,7,80,0,2.398
200,self,8,50,0,3.626
200,self,9,65,0,2.95
200,self,10,90,0,2.844
200,self,11,95,1,12.335
200,self,12,85,0,2.405
200,self,13,75,0,2.386
200,self,14,75,0,2.575
200,self,15,70,0,2.488
200,self,16,95,1,5.086
200,self,17,60,0,1.931
200,self,18,90,0,1.787
200,self,19,80,0,2.962
200,self,20,50,0,3.241
201,self,1,80,0,4.948
201,self,2,65,0,3.654
201,self,3,75,0,2.969
201,self,4,65,0,2.136
201,self,5,50,0,3.667
201,self,6,95,0,10.273
201,self,7,55,0,11.146
201,self,8,85,0,2.156
201,self,9,50,0,2.878
201,self,10,70,0,2.298
201,self,11,75,0,2.928
201,self,12,90,0,1.932
201,self,13,70,0,2.397
201,self,14,60,0,2.036
201,self,15,80,0,3.124
201,self,16,55,0,2.623
201,self,17,85,0,2.799
201,self,18,60,0,2.241
201,self,19,95,0,2.771
201,self,20,90,0,1.933
202,other,1,85,0,10.507
202,other,2,60,0,2.72
202,other,3,55,0,2.936
202,other,4,95,1,5.428
202,other,5,75,0,2.755
202,other,6,75,0,2.886
202,other,7,50,0,3.305
202,other,8,50,0,2.445
202,other,9,70,0,2.994
202,other,10,80,0,2.302
202,other,11,85,0,2.545
202,other,12,60,0,2.005
202,other,13,95,1,2.481
202,other,14,70,0,3.439
202,other,15,90,1,4.456
202,other,16,65,0,3.359
202,other,17,55,0,3.206
202,other,18,80,0,6.763
202,other,19,65,0,1.88
202,other,20,90,1,2.644
203,other,1,90,0,4.551
203,other,2,55,0,3.206
203,other,3,65,0,3.044
203,other,4,55,0,4.464
203,other,5,50,0,3.208
203,other,6,50,0,2.835
203,other,7,80,0,2.897
203,other,8,70,0,2.087
203,other,9,95,0,3.041
203,other,10,90,0,2.247
203,other,11,85,0,1.989
203,other,12,85,0,3.2
203,other,13,75,0,2.825
203,other,14,65,0,2.629
203,other,15,60,0,2.29
203,other,16,60,0,3.04
203,other,17,80,0,2.275
203,other,18,75,0,2.192
203,other,19,70,0,2.638
203,other,20,95,0,1.982
204,other,1,50,0,2.189
204,other,2,90,0,3.947
204,other,3,55,0,1.698
204,other,4,65,1,2.299
204,other,5,75,0,2.145
204,other,6,85,0,3.645
204,other,7,85,0,3.011
204,other,8,70,0,1.983
204,other,9,50,0,3.528
204,other,10,55,0,2.879
204,other,11,95,0,2.762
204,other,12,95,0,2.075
204,other,13,60,1,2.785
204,other,14,65,0,2.147
204,other,15,80,1,3.22
204,other,16,70,0,1.944
204,other,17,90,1,2.467
204,other,18,75,1,3.162
204,other,19,80,1,4.062
204,other,20,60,0,2.348
205,other,1,65,0,6.963
205,other,2,65,0,3.134
205,other,3,75,0,2.804
205,other,4,55,0,2.939
205,other,5,95,1,1.706
205,other,6,50,0,2.649
205,other,7,80,0,3.646
205,other,8,55,0,1.905
205,other,9,70,0,1.956
205,other,10,50,0,1.96
205,other,11,60,0,2.134
205,other,12,80,0,1.979
205,other,13,60,0,2.205
205,other,14,85,0,3.818
205,other,15,95,1,2.663
205,other,16,75,0,2.771
205,other,17,85,0,1.491
205,other,18,90,0,2.14
205,other,19,70,0,2.4
205,other,20,90,0,1.799
206,other,1,80,0,5.598
206,other,2,60,0,3.52
206,other,3,75,1,3.968
206,other,4,85,0,4.181
206,other,5,85,0,2.714
206,other,6,55,0,4.06
206,other,7,95,1,3.51
206,other,8,50,0,2.335
206,other,9,75,0,2.71
206,other,10,70,0,2.42
206,other,11,65,0,2.363
206,other,12,80,1,2.547
206,other,13,60,0,3.304
206,other,14,70,0,2.838
206,other,15,90,1,2.255
206,other,16,50,0,3.238
206,other,17,95,0,2.555
206,other,18,90,1,8.708
206,other,19,55,0,2.656
206,other,20,65,0,3.322
207,other,1,80,0,1.862
207,other,2,50,0,2.319
207,other,3,85,0,2.665
207,other,4,85,0,1.659
207,other,5,70,0,2.211
207,other,6,90,0,1.698
207,other,7,65,0,3.015
207,other,8,90,0,1.75
207,other,9,65,0,2.167
207,other,10,55,0,1.447
207,other,11,70,0,2.108
207,other,12,60,0,2.033
207,other,13,95,0,1.871
207,other,14,75,0,2.141
207,other,15,80,0,1.67
207,other,16,75,0,2.094
207,other,17,55,0,1.941
207,other,18,60,0,2.021
207,other,19,50,0,1.669
207,other,20,95,0,1.838
208,other,1,70,0,3.442
208,other,2,55,0,3.599
208,other,3,60,0,3.248
208,other,4,80,0,3.843
208,other,5,75,0,2.884
208,other,6,55,0,5.885
208,other,7,90,0,3.787
208,other,8,80,0,3.166
208,other,9,50,0,4.6
208,other,10,85,0,3.791
208,other,11,70,0,2.926
208,other,12,95,1,3.7
208,other,13,75,0,3.061
208,other,14,95,1,2.775
208,other,15,65,0,3.279
208,other,16,85,0,3.389
208,other,17,65,0,3.801
208,other,18,90,1,4.154
208,other,19,60,0,3.165
208,other,20,50,0,3.005
209,other,1,65,0,5.319
209,other,2,70,0,3.842
209,other,3,50,0,2.238
209,other,4,75,0,3.93
209,other,5,65,0,3.169
209,other,6,55,0,4.235
209,other,7,55,0,2.444
209,other,8,70,0,3.006
209,other,9,90,1,4.965
209,other,10,85,0,4.926
209,other,11,85,0,4.867
209,other,12,95,1,2.65
209,other,13,75,0,2.751
209,other,14,60,0,1.833
209,other,15,80,0,1.872
209,other,16,60,0,2.174
209,other,17,95,1,1.782
209,other,18,80,0,1.948
209,other,19,90,1,3.071
209,other,20,50,0,2.225
210,other,1,70,0,3.966
210,other,2,95,1,5.877
210,other,3,60,0,3.509
210,other,4,70,0,2.708
210,other,5,50,0,2.684
210,other,6,80,1,2.325
210,other,7,50,0,1.818
210,other,8,55,0,2.344
210,other,9,65,0,1.976
210,other,10,75,1,2.469
210,other,11,90,1,2.385
210,other,12,85,1,1.639
210,other,13,95,1,1.989
210,other,14,90,1,2.397
210,other,15,65,0,1.982
210,other,16,60,0,2.331
210,other,17,80,1,1.823
210,other,18,85,1,1.67
210,other,19,75,1,1.576
210,other,20,55,0,1.991
211,other,1,50,0,3.518
211,other,2,65,0,2.564
211,other,3,90,1,2.153
211,other,4,60,0,3.267
211,other,5,55,0,1.846
211,other,6,55,0,2.083
211,other,7,50,0,2.025
211,other,8,95,1,2.427
211,other,9,70,0,2.361
211,other,10,60,0,2.421
211,other,11,80,1,2.565
211,other,12,70,0,2.958
211,other,13,85,1,2.082
211,other,14,95,1,2.313
211,other,15,75,0,4.237
211,other,16,75,1,4.268
211,other,17,65,0,1.747
211,other,18,90,1,2.584
211,other,19,85,1,2.319
211,other,20,80,1,1.643
212,other,1,75,0,7.238
212,other,2,70,0,5.066
212,other,3,55,0,4.545
212,other,4,90,0,4.111
212,other,5,50,0,2.851
212,other,6,50,0,3.611
212,other,7,60,0,4.655
212,other,8,70,0,10.064
212,other,9,80,0,3.958
212,other,10,65,0,3.564
212,other,11,65,0,3.409
212,other,12,80,0,3.828
212,other,13,90,0,3.299
212,other,14,75,0,3.401
212,other,15,55,0,3.807
212,other,16,60,0,3.062
212,other,17,85,0,2.553
212,other,18,85,0,3.592
212,other,19,95,0,3.542
212,other,20,95,0,3.59
213,other,1,95,1,10.285
213,other,2,50,0,2.56
213,other,3,80,1,2.778
213,other,4,70,1,6.588
213,other,5,90,1,3.303
213,other,6,60,0,1.775
213,other,7,90,1,2.704
213,other,8,85,1,2.271
213,other,9,85,1,1.894
213,other,10,80,1,2.555
213,other,11,65,0,2.988
213,other,12,70,1,1.48
213,other,13,55,0,2.241
213,other,14,60,0,2.308
213,other,15,55,0,2.665
213,other,16,95,1,1.442
213,other,17,75,1,1.677
213,other,18,50,0,1.593
213,other,19,65,0,1.637
213,other,20,75,1,1.912
214,other,1,65,1,7.015
214,other,2,70,1,4.447
214,other,3,75,1,3.107
214,other,4,50,0,3.072
214,other,5,85,1,2.579
214,other,6,75,1,3.076
214,other,7,80,1,2.833
214,other,8,90,1,3.04
214,other,9,60,0,3.618
214,other,10,90,1,4.407
214,other,11,85,1,3.121
214,other,12,70,1,3.843
214,other,13,95,1,4.214
214,other,14,55,0,2.609
214,other,15,80,1,2.901
214,other,16,65,1,4.4
214,other,17,55,0,2.696
214,other,18,95,1,2.098
214,other,19,50,0,3.41
214,other,20,60,0,2.494
215,other,1,70,0,7.403
215,other,2,60,0,4.893
215,other,3,75,0,4.38
215,other,4,70,0,4.669
215,other,5,80,0,6.221
215,other,6,55,0,4.164
215,other,7,85,0,3.93
215,other,8,95,1,2.662
215,other,9,65,0,3.231
215,other,10,90,1,3.777
215,other,11,50,0,4.247
215,other,12,75,0,3.205
215,other,13,65,0,3.955
215,other,14,55,0,2.869
215,other,15,80,0,4.134
215,other,16,90,1,2.537
215,other,17,95,1,3.024
215,other,18,85,0,4.096
215,other,19,50,0,2.392
215,other,20,60,0,3.202
216,other,1,55,0,7.788
216,other,2,50,0,6.813
216,other,3,75,0,16.145
216,other,4,65,0,9.027
216,other,5,75,0,8.437
216,other,6,65,0,6.452
216,other,7,60,0,6.788
216,other,8,95,1,7.972
216,other,9,80,0,13.077
216,other,10,85,1,10.156
216,other,11,55,0,53.818
216,other,12,70,0,8.208
216,other,13,60,0,6.156
216,other,14,50,0,6.241
216,other,15,70,0,10.436
216,other,16,95,1,9.98
216,other,17,90,0,8.713
216,other,18,90,1,7.654
216,other,19,85,0,8.289
216,other,20,80,0,7.614
217,other,1,85,1,5.341
217,other,2,65,0,3.718
217,other,3,75,1,3.931
217,other,4,90,1,2.878
217,other,5,60,0,2.788
217,other,6,80,1,2.592
217,other,7,70,1,2.48
217,other,8,95,1,2.561
217,other,9,80,1,1.747
217,other,10,50,0,3.287
217,other,11,90,1,2.128
217,other,12,60,0,2.234
217,other,13,70,1,2.68
217,other,14,55,0,1.847
217,other,15,85,1,4.26
217,other,16,75,1,1.627
217,other,17,50,0,2.205
217,other,18,95,1,2.312
217,other,19,55,0,3.229
217,other,20,65,0,1.986
220,other,1,90,1,5.053
220,other,2,80,1,2.789
220,other,3,50,0,31.654
220,other,4,90,1,3.407
220,other,5,60,0,2.287
220,other,6,70,1,3.185
220,other,7,65,0,3.525
220,other,8,95,1,27.729
220,other,9,95,1,2.689
220,other,10,65,0,2.173
220,other,11,75,1,2.671
220,other,12,70,1,2.809
220,other,13,75,1,2.339
220,other,14,55,0,2.466
220,other,15,55,0,3.112
220,other,16,50,0,2.247
220,other,17,85,1,2.795
220,other,18,85,1,2.165
220,other,19,80,1,4.441
220,other,20,60,0,3.204
221,other,1,85,1,3.617
221,other,2,95,1,2.553
221,other,3,85,1,2.809
221,other,4,70,0,2.42
221,other,5,50,0,2.978
221,other,6,50,0,2.436
221,other,7,65,0,2.977
221,other,8,80,1,2.713
221,other,9,70,0,2.049
221,other,10,60,0,2.023
221,other,11,60,0,3.852
221,other,12,75,0,3.376
221,other,13,55,0,1.934
221,other,14,95,1,2.017
221,other,15,65,0,1.918
221,other,16,55,0,2.033
221,other,17,90,1,2.356
221,other,18,80,1,2.473
221,other,19,90,1,1.819
221,other,20,75,0,2.022
222,other,1,50,0,3.502
222,other,2,50,0,1.887
222,other,3,95,1,3.327
222,other,4,85,0,2.869
222,other,5,95,0,2.602
222,other,6,65,0,2.331
222,other,7,80,0,1.897
222,other,8,75,0,1.718
222,other,9,85,0,1.386
222,other,10,65,0,2.309
222,other,11,75,0,1.646
222,other,12,70,0,1.908
222,other,13,55,0,2.595
222,other,14,70,0,2.276
222,other,15,90,1,1.734
222,other,16,60,0,1.574
222,other,17,60,0,2.184
222,other,18,80,0,10.799
222,other,19,90,0,1.439
222,other,20,55,0,1.439
223,other,1,75,1,4.359
223,other,2,65,1,4.87
223,other,3,80,1,3.57
223,other,4,80,1,2.578
223,other,5,90,1,2.514
223,other,6,75,1,2.938
223,other,7,60,0,2.404
223,other,8,95,1,3.14
223,other,9,85,1,9.904
223,other,10,55,0,2.919
223,other,11,85,1,2.712
223,other,12,50,0,3.927
223,other,13,70,1,2.994
223,other,14,55,0,2.088
223,other,15,50,0,2.716
223,other,16,65,1,3.282
223,other,17,70,1,2.525
223,other,18,95,1,2.23
223,other,19,90,1,3.119
223,other,20,60,0,2.382
224,other,1,80,1,7.593
224,other,2,55,0,5.002
224,other,3,85,1,3.367
224,other,4,90,1,3.168
224,other,5,60,0,3.188
224,other,6,50,0,3.237
224,other,7,55,0,4.021
224,other,8,90,1,3.143
224,other,9,60,0,4.2
224,other,10,70,0,2.941
224,other,11,95,1,3.712
224,other,12,70,0,2.369
224,other,13,85,1,2.295
224,other,14,80,1,8.955
224,other,15,75,1,12.352
224,other,16,95,1,2.625
224,other,17,75,1,2.917
224,other,18,65,0,6.671
224,other,19,50,0,2.176
224,other,20,65,0,2.057
225,other,1,50,0,3.565
225,other,2,90,0,4.212
225,other,3,70,0,3.084
225,other,4,95,1,2.359
225,other,5,80,0,3.059
225,other,6,65,0,1.943
225,other,7,95,1,3.439
225,other,8,65,0,1.91
225,other,9,60,0,2.533
225,other,10,85,0,2.409
225,other,11,75,0,1.987
225,other,12,85,0,2.024
225,other,13,70,0,2.111
225,other,14,75,0,1.396
225,other,15,90,1,1.653
225,other,16,80,0,2.43
225,other,17,55,0,1.722
225,other,18,50,0,2.057
225,other,19,55,0,2.33
225,other,20,60,0,2.507
226,other,1,80,0,11.33
226,other,2,50,0,6.336
226,other,3,85,0,3.847
226,other,4,95,0,6.642
226,other,5,55,0,6.529
226,other,6,95,0,4.548
226,other,7,70,0,7.53
226,other,8,80,0,5.058
226,other,9,85,0,8.685
226,other,10,75,0,3.389
226,other,11,50,0,9.137
226,other,12,90,0,3.844
226,other,13,90,0,4.288
226,other,14,65,0,24.435
226,other,15,60,0,12.171
226,other,16,60,0,3.319
226,other,17,65,0,6.182
226,other,18,70,0,3.663
226,other,19,55,0,4.486
226,other,20,75,0,4.006
227,other,1,95,1,4.937
227,other,2,80,1,5.211
227,other,3,65,0,8.278
227,other,4,50,0,3.235
227,other,5,95,1,2.956
227,other,6,70,0,3.02
227,other,7,90,1,3.309
227,other,8,60,0,2.76
227,other,9,75,0,5.516
227,other,10,50,0,8.317
227,other,11,85,1,41.078
227,other,12,55,0,3.197
227,other,13,55,0,3.603
227,other,14,80,0,2.856
227,other,15,90,1,4.44
227,other,16,85,1,4.604
227,other,17,60,0,4.094
227,other,18,65,0,2.835
227,other,19,70,0,3.468
227,other,20,75,0,2.971
228,other,1,55,0,6.394
228,other,2,90,0,5.109
228,other,3,60,0,3.952
228,other,4,65,0,3.611
228,other,5,60,0,2.765
228,other,6,50,0,4.139
228,other,7,90,0,4.004
228,other,8,80,0,3.275
228,other,9,75,0,3.727
228,other,10,70,0,4.836
228,other,11,70,0,4.416
228,other,12,80,0,3.903
228,other,13,55,0,3.416
228,other,14,65,0,3.663
228,other,15,95,0,3.212
228,other,16,75,0,176.666
228,other,17,85,0,2.322
228,other,18,50,0,3.254
228,other,19,95,0,3.118
228,other,20,85,0,3.423
229,other,1,55,0,6.006
229,other,2,90,1,4.04
229,other,3,85,1,5.216
229,other,4,50,0,3.869
229,other,5,70,0,3.189
229,other,6,75,0,3.148
229,other,7,65,0,3.203
229,other,8,60,0,2.939
229,other,9,50,0,2.656
229,other,10,80,1,6.267
229,other,11,65,0,3.648
229,other,12,60,0,3.773
229,other,13,70,0,3.864
229,other,14,55,0,3.012
229,other,15,95,1,3.54
229,other,16,80,1,3.332
229,other,17,95,1,3.953
229,other,18,85,1,6.809
229,other,19,75,0,3.167
229,other,20,90,1,4.218
230,other,1,50,0,3.533
230,other,2,95,1,2.949
230,other,3,75,0,2.544
230,other,4,75,0,1.806
230,other,5,70,0,2.074
230,other,6,80,1,4.441
230,other,7,70,0,2.283
230,other,8,80,1,3.977
230,other,9,55,0,1.842
230,other,10,55,0,1.694
230,other,11,85,1,2.392
230,other,12,50,0,1.921
230,other,13,65,0,1.67
230,other,14,85,1,2.433
230,other,15,90,1,2.168
230,other,16,60,0,1.841
230,other,17,65,0,1.571
230,other,18,60,0,1.945
230,other,19,95,1,1.938
230,other,20,90,1,1.983
231,other,1,90,0,6.183
231,other,2,60,0,7.935
231,other,3,95,0,4.254
231,other,4,80,0,4.39
231,other,5,70,0,5.734
231,other,6,50,0,4.321
231,other,7,85,0,4.307
231,other,8,55,0,8.83
231,other,9,65,0,4.22
231,other,10,65,0,3.37
231,other,11,60,0,3.054
231,other,12,90,0,3.787
231,other,13,55,0,2.977
231,other,14,80,0,4.024
231,other,15,95,0,3.982
231,other,16,50,0,3.906
231,other,17,70,0,3.243
231,other,18,75,0,2.896
231,other,19,75,0,2.919
231,other,20,85,0,2.895
232,other,1,85,0,2.765
232,other,2,95,1,5.882
232,other,3,75,0,2.26
232,other,4,75,0,2.254
232,other,5,55,0,2.755
232,other,6,65,0,3.124
232,other,7,50,0,2.312
232,other,8,85,0,2.345
232,other,9,70,0,1.876
232,other,10,90,0,2.619
232,other,11,90,0,2.953
232,other,12,55,0,1.931
232,other,13,70,0,2.245
232,other,14,80,0,2.319
232,other,15,80,0,2.577
232,other,16,60,0,2.422
232,other,17,95,1,2.271
232,other,18,60,0,2.22
232,other,19,65,0,2.282
232,other,20,50,0,2.093
233,other,1,70,0,3.159
233,other,2,50,0,2.463
233,other,3,55,0,2.266
233,other,4,80,1,4.647
233,other,5,60,0,2.735
233,other,6,90,1,2.652
233,other,7,75,0,7.043
233,other,8,90,1,3.423
233,other,9,85,1,2.104
233,other,10,65,0,27.065
233,other,11,75,0,2.481
233,other,12,70,0,3.101
233,other,13,50,0,2.968
233,other,14,60,0,2.27
233,other,15,80,1,3.469
233,other,16,55,0,2.797
233,other,17,85,1,4.221
233,other,18,65,0,2.259
233,other,19,95,1,2.696
233,other,20,95,1,2.837
234,other,1,65,0,7.557
234,other,2,95,1,5.173
234,other,3,85,1,6.169
234,other,4,60,0,3.885
234,other,5,50,0,3.65
234,other,6,80,1,4.51
234,other,7,75,0,11.064
234,other,8,85,1,4.887
234,other,9,80,1,5.004
234,other,10,90,1,3.637
234,other,11,70,0,3.337
234,other,12,55,0,2.402
234,other,13,60,0,2.464
234,other,14,90,1,3.457
234,other,15,55,0,2.635
234,other,16,95,1,3.438
234,other,17,70,0,2.824
234,other,18,50,0,3.576
234,other,19,75,0,4.15
234,other,20,65,0,2.49
235,other,1,95,1,7.571
235,other,2,60,0,22.611
235,other,3,75,1,4.645
235,other,4,65,0,3.373
235,other,5,70,1,7.344
235,other,6,90,1,2.641
235,other,7,50,0,3.149
235,other,8,65,0,3.319
235,other,9,60,0,2.577
235,other,10,50,0,2.446
235,other,11,95,1,3.266
235,other,12,85,1,2.751
235,other,13,80,1,4.849
235,other,14,55,0,3.276
235,other,15,85,1,3.845
235,other,16,70,0,3.13
235,other,17,55,0,2.158
235,other,18,75,0,2.788
235,other,19,80,1,4.395
235,other,20,90,1,2.405
237,other,1,70,0,3.723
237,other,2,55,0,2.959
237,other,3,75,0,3.554
237,other,4,60,0,3.337
237,other,5,95,0,2.918
237,other,6,95,0,3.801
237,other,7,80,0,2.385
237,other,8,65,0,14.077
237,other,9,60,0,2.758
237,other,10,50,0,3.094
237,other,11,85,0,2.891
237,other,12,80,0,3.291
237,other,13,50,0,2.221
237,other,14,65,0,2.496
237,other,15,90,0,2.879
237,other,16,75,0,3.06
237,other,17,85,0,4.2
237,other,18,90,0,2.399
237,other,19,55,0,3.161
237,other,20,70,0,2.824
238,other,1,65,1,8.666
238,other,2,50,0,2.665
238,other,3,55,0,2.224
238,other,4,75,1,2.218
238,other,5,80,1,2.877
238,other,6,90,1,2.086
238,other,7,55,0,1.953
238,other,8,60,0,2.093
238,other,9,70,0,12.709
